#timestamp [ns],w_RS_S_x [rad s^-1],w_RS_S_y [rad s^-1],w_RS_S_z [rad s^-1],a_RS_S_x [m s^-2],a_RS_S_y [m s^-2],a_RS_S_z [m s^-2]
8988972303690,-0.003025851268806259,-0.003380388142117753,0.0017539538350897742,0.05172671454646206,-9.677320838950068,1.002004591075487
8988973303690,0.002136506598025785,0.0009929777320891314,0.0007640458657860033,0.05172671454646206,-9.667402297679116,0.9734492690105869
8988974298990,-0.0017316536834256543,0.012570219633323339,-0.005920633451651679,0.03785538239486673,-9.643585720403363,0.9882656088271273
8988975294190,0.0009579405452473932,-0.019189155272901232,0.003014249684032475,0.03785538239486673,-9.610852169219525,0.9882951795434776
8988976284590,0.0019212770134758288,0.01627760013394962,0.0013706226592942166,0.041818613839593136,-9.59597584873118,0.9932277019087135
8988977284590,-0.00024803170802625146,0.00226827342632472,-0.0018548023070744102,0.03290133932388241,-9.56819549290099,0.9972057661348976
8988978279790,-0.002421802938703854,-0.013644870868617053,-0.0005762381280950816,0.04677267157455871,-9.57217309563522,0.9932419789559219
8988979274990,0.002054338282802496,0.019416407306886777,0.00013687240275193305,0.07055210453210393,-9.568223141448266,1.0020756893697336
8988980265490,-0.0026663042021501573,-0.010750649414093764,-0.002688781731627958,0.0844234367827802,-9.563273584068474,1.0256992291613931
8988981265490,-0.0003953033651395285,-0.006895697968720346,0.0013455083229832977,0.08046019057499158,-9.577157577488391,1.025692467327782
8988982260690,0.0006511136178667196,0.010546508653083334,-0.003934225680375923,0.06559804679713836,-9.595993310973252,1.025697128920283
8988983255890,-0.0011702246036974567,-0.015757589760140668,-0.004609527252887361,0.07055210453210393,-9.614843596331932,1.0355227198587496
8988984246290,0.0031769876788118115,0.01591027485327047,-0.0010196848976590177,0.06559804679713836,-9.634678932899673,1.0305870453092012
8988985246290,-0.0021790596557378734,-0.017274662221713654,-0.0014799842291040072,0.06163481535241193,-9.648562926231241,1.049294837465707
8988986241490,0.0014014911671818772,0.009017377100994983,0.00031904631066067245,0.05172671454646206,-9.648555650294297,1.0443844315464812
8988987236690,0.002030112038162028,0.009171634721678402,-0.0054534781802639135,0.06559804679713836,-9.65848437787045,1.049280094044522
8988988227190,0.004097957422955659,-0.01979387600686039,-0.003022122163590645,0.041818613839593136,-9.682273306698196,1.0630829773973043
8988989227190,0.003805582616482353,0.016039524993957777,-0.0021499759932293245,0.018039195546029216,-9.710029651965733,1.049302896765886
8988990222390,0.001378127834411139,-0.0008751590833113443,-0.0008774468041128939,0.03290133932388241,-9.73880670052131,1.0443303588463333
8988991217590,0.003220698439333652,-0.018804043143739155,-0.0001268627351820456,0.041818613839593136,-9.752700152651675,1.0354400930642744
8988992207990,0.007330814332536129,0.018899982859202913,-0.00038478717271254537,0.014075949338240565,-9.776486171011896,1.054173506319161
8988993207990,0.003490359968888558,-0.01103230765111637,-0.0008276193253936442,0.02299323861701351,-9.791371950210683,1.0492221882806276
8988994203190,0.008929756900173998,0.0042270185421412546,0.0008905898496862517,0.03785538239486673,-9.791382864110641,1.0442756370071196
8988995198390,0.0032606184682891105,-0.0019035564418566839,0.002748392141749702,0.03785538239486673,-9.786423120524839,1.0679195355990774
8988996188890,0.007265138487429974,-0.008920441075384016,0.00017888312538183807,0.07550614760308823,-9.772563865273098,1.106291032831556
8988997188890,0.006692745711955186,0.014753057835418061,0.0022238320394438625,0.07550614760308823,-9.752724890830692,1.1063089548920935
8988998184090,0.005232997137739039,-0.018071248556271048,0.002130389042902788,0.05172671454646206,-9.733860781104532,1.0827213792790091
8988999179290,0.009704108439458386,0.01285994514651674,0.002829017063592681,0.041818613839593136,-9.72492634505364,1.0866837463187042
8989000169690,0.009675147709918095,0.0006090408882404585,-0.0025240325534941974,0.07550614760308823,-9.691225204991232,1.1063645122544883
8989001169690,0.008378605812111726,-0.016323005234374403,0.0012543003377357888,0.07055210453210393,-9.710068214412967,1.1102946774183269
8989002164990,0.007457382221276161,0.019296406969966096,-0.004272060440679733,0.07550614760308823,-9.701144692262032,1.0728665223271512
8989003160190,0.006625340527961697,-0.013775222798146684,-0.0053728843078320165,0.11315691281130973,-9.624794370113092,1.0728805794514398
8989004150590,0.010416397157331194,-0.0047631256090518645,-0.0059505817436929995,0.11315691281130973,-9.60594772272827,1.077822469132447
8989005150590,0.013840520583203224,0.008493516387261084,-0.0033614993689220435,0.10423962353253675,-9.61982807808591,1.082747800426528
8989006145790,0.008781039006553581,-0.005531676008245522,-0.0018102500843877036,0.11315691281130973,-9.624794370113092,1.077805443516716
8989007140990,0.015247612609010752,0.01901460630660544,-0.0034196968608310296,0.11315691281130973,-9.600987979043277,1.0778269496476485
8989008131390,0.011143431615916726,-0.016166540037661388,-0.0062813784878271205,0.09928558056063343,-9.563284497968432,1.0916708148080478
8989009131390,0.009566957700926918,0.008016975318588151,-0.005233626482378501,0.06163481535241193,-9.563256849421158,1.073011319134288
8989010126690,0.009579978607997312,0.013534860658740253,-0.006074402721713263,0.041818613839593136,-9.572169457661365,1.0730321708408266
8989011121890,0.00659959873904542,-0.024681638565061715,-0.004443274400810928,0.056680757617446356,-9.582099858832121,1.0592118326559876
8989012112290,0.010218039231135269,0.017672325790970903,-0.006926500915804862,0.04677267157455871,-9.614826134089858,1.0444221277698191
8989013112290,0.0022601304312014,0.00014993315453600692,-0.005641061991850846,0.03785538239486673,-9.624739073018542,1.0631407330802651
8989014107490,0.003984421655217188,-0.014661600932239126,-0.001983077472361637,0.05172671454646206,-9.592015708139833,1.0444355083936745
8989015102690,0.0019159606979841023,0.014030329954457833,-0.00015030122503558244,0.041818613839593136,-9.59597584873118,1.0542961106983242
8989016093090,0.003247041681683825,-0.007637565292122183,-0.002811289512296052,0.004167855963362291,-9.638601238544735,1.0868166463204825
8989017093090,0.0031536397798090695,0.006032613895182955,-0.00497642479626551,-0.019611576994182908,-9.66239016737248,1.0828899954186
8989018088390,-0.00227480716510769,-0.0045865934493497205,-0.007415907915339363,-0.024565619966086263,-9.653459369295442,1.0917699975383444
8989019083590,-0.0020350565217038766,-0.009502497882542711,-0.002180350597933193,-0.01465752659120799,-9.638587414271134,1.0917689809486526
8989020073990,-0.0012115859449617792,0.0199422204467224,-0.002358890022069629,-0.005740237411515997,-9.638593962613248,1.0592518420704715
8989021073990,-0.004834734579908868,-0.024392865297592624,-0.004280595818294243,-0.005740237411515997,-9.634626546184222,1.0356161254727139
8989022069190,-0.002488891742620341,0.011162721016548915,-3.07720210603428e-05,-0.009703476188233043,-9.629663892125585,1.0681305156945737
8989023064390,-0.006512618512503667,0.010056128021828183,-0.0014060759523951715,0.027947281588916864,-9.648538188052225,1.0779082773897986
8989024054790,-0.005721472666211727,-0.027424765989621867,0.0008457864963950946,0.04677267157455871,-9.677317200987053,1.0778548211231078
8989025054790,-0.003733047478270931,0.01643427748964907,-0.0008693501995785157,0.03785538239486673,-9.658464005260118,1.1015241597360026
8989026050090,-0.001274903653641496,-0.006883921657291351,-0.0002828152491029818,0.07550614760308823,-9.61484723429502,1.1064335103077143
8989027045290,-0.003544736942210813,-0.010252547836431456,-0.0015534506398331028,0.08046019057499158,-9.610883455729814,1.0916552730215126
8989028035690,-0.006270769797827203,0.006043679251126435,-0.0010577202531906822,0.0844234367827802,-9.634692757178732,1.086703119459798
8989029035690,-0.002665418849166567,-0.010376779710415833,-0.0023098286992816524,0.10423962353253675,-9.63867472547073,1.1014452114134945
8989030030890,-0.004493493755959413,0.01369243175583005,-0.0031441347428490564,0.08937747975468356,-9.629736651456751,1.0916252350765916
8989031026090,-0.004682769995141431,-0.013262640324551045,-0.00031572710274642294,0.08937747975468356,-9.629736651456751,1.120189517218714
8989032016590,-0.001000804444741041,0.002767300018505843,-0.0009707931531778777,0.09928558056063343,-9.648590574778515,1.1339476059943538
8989033016590,0.0011469231671775628,0.007643321577605153,-0.00031687322445252174,0.09433152282566785,-9.667433584189478,1.0965088188480796
8989034011790,-0.002681686747071702,-0.017266194670825602,-0.002733081134659408,0.07055210453210393,-9.677334663229127,1.0728952575204098
8989035006990,0.004184336335297604,0.01679341923340537,-0.002773363959355233,0.08937747975468356,-9.686276593611215,1.077784585691977
8989035997390,-0.0008804568514120597,0.0005250108204664233,-0.0034958330562111424,0.10423962353253675,-9.66744086012635,1.096494360702174
8989036997390,-0.00039972871855359533,-0.008763690621117579,-0.0008001884406366117,0.0844234367827802,-9.672385105948527,1.0965187973119797
8989037992590,0.0006510911814848284,0.010524877354009018,8.067896989585877e-05,0.0844234367827802,-9.691231753333346,1.0866520434671987
8989038987790,0.0018600503602038965,-0.00965184799219881,-0.00018584665878543325,0.09433152282566785,-9.67735212546043,1.0866501304433103
8989039978290,0.0035367886988908245,0.008625431924963636,0.0019409120437575015,0.0844234367827802,-9.6862729556482,1.0679420865251086
8989040978290,-0.0024043524713980016,-0.006254937007694077,-2.4112188096164257e-05,0.06559804679713836,-9.70609715991089,1.0630267717290396
8989041973490,-0.004662350827218685,-0.004609576537609048,-0.0016370685021743227,0.07055210453210393,-9.682294406914124,1.0541762229936387
8989042968690,-0.004351578575700518,0.020570604124897696,-0.0007138202914535445,0.07550614760308823,-9.677338301192215,1.0305340562711707
8989043959090,-0.003201207727407819,-0.024430862496698777,0.001736688443421626,0.056680757617446356,-9.701130867982974,1.0069007199475044
8989044959090,-0.0013632979781581676,0.008895384979701458,0.0014559708535957627,0.06163481535241193,-9.696174762271834,0.9970482431499319
8989045954390,-0.00400979933197159,0.005664830402558947,-0.0019455601865707834,0.07550614760308823,-9.677338301192215,1.0256091922058945
8989046949590,-0.004693420149818198,-0.017774078134093804,-0.0002209300539745317,0.07055210453210393,-9.672374919643325,1.0354707474212543
8989047939990,-0.0015930196484221044,0.018043739553934054,0.001393475265289111,0.056680757617446356,-9.672364733327354,1.0167764348225987
8989048939990,-0.003408473860892266,-0.005785475547067695,0.006506637468358584,0.06163481535241193,-9.653522669916235,1.0069365022709618
8989049935190,-0.0037727207681718024,-0.00038822853350096304,0.005038850821638853,0.06559804679713836,-9.624759445628873,0.9882421516599711
8989050930390,-0.005898830813936639,0.0039048818977798286,0.0003067500367231269,0.056680757617446356,-9.62475289728676,0.988255163989161
8989051920790,-0.004312016490224661,-0.015904662397025492,0.0014217331275905992,0.06163481535241193,-9.610869631461599,0.9931853440713321
8989052920790,-0.002594143494888977,0.019804044039793467,0.0009066605398101082,0.03290133932388241,-9.605888787670633,1.0020965790672092
8989053916090,-0.0030516035790363657,-0.014296945384812475,0.004565550290931522,0.06163481535241193,-9.610869631461599,1.0355393162582451
8989054911290,-0.0017731124029313709,-0.005014221235710371,0.0018644424501838,0.08046019057499158,-9.634689846799631,1.0542047762763125
8989055901690,0.0025542981017282595,0.01827551700075169,0.0022605624496622803,0.041818613839593136,-9.667395021742246,1.0591564563709817
8989056901690,-0.006341191350519998,-0.023793693910068747,0.0017507032226468924,0.041818613839593136,-9.682273306698196,1.049293287451011
8989057896890,-0.0012347179502032058,0.010112799134706488,0.007988320111065657,0.06163481535241193,-9.66740957361606,1.0591275400790257
8989058892090,-0.003370600018838346,0.010261577972956397,0.004984626722035094,0.07055210453210393,-9.667416121958174,1.0965435183641032
8989059882490,0.0003450443086080368,-0.012657955740007408,0.0005511844492834973,0.04677267157455871,-9.68227694467205,1.086715048981554
8989060882490,0.003919656130225026,0.011105796093322934,0.006473547362019124,0.03785538239486673,-9.667392111373987,1.0867415020016649
8989061877790,0.0003512165248365975,-0.01006520884053793,0.0077206235433867655,0.03785538239486673,-9.672350909059137,1.106436478799157
8989062872990,0.0035477080290023874,0.013236481710690778,0.006614666543980777,0.04677267157455871,-9.715010495756696,1.106384934723393
8989063863390,0.0038859574011086747,-0.0031546235363389963,0.0019851273044564043,0.056680757617446356,-9.724937258953599,1.1201512054163683
8989064863390,0.0027334196377389926,-0.01231315326259378,0.0048121624010646034,0.07055210453210393,-9.701141054298944,1.096513052057451
8989065858590,-0.0013432005669201299,0.01739814013444639,0.00477601122406268,0.07550614760308823,-9.715031595961857,1.0866435496655455
8989066853790,0.0031086305470797316,-0.013056087788658556,0.0029238937469068553,0.041818613839593136,-9.715006857782841,1.1063921638071172
8989067844190,0.00037194833844915367,-0.0012706225340042634,0.0033889556187065174,0.041818613839593136,-9.677313563013199,1.082786914272108
8989068844190,0.0031648381060090346,0.010752741358534927,0.0027093598673073706,0.06559804679713836,-9.67733102525527,1.0916169232068316
8989069839490,-0.0028153817199980478,-0.020696158015554533,0.0060269108431861545,0.05172671454646206,-9.691207742749086,1.1103391735092982
8989070834690,-0.001119692281460023,0.005617831933758657,0.00494608223533901,0.027947281588916864,-9.658456729323175,1.082824181279355
8989071825090,0.00024452564346073586,-0.002011851096357091,0.0015022477860146674,0.018039195546029216,-9.648530912126121,1.0680730072852562
8989072825090,0.000248955909331214,-0.00013912469135763522,0.0027696839131318655,0.041818613839593136,-9.65350811804242,1.0443944091771853
8989073820290,-0.0017615663782175276,-0.0001187740515555813,0.0002666119730426403,0.05172671454646206,-9.624749259323671,1.0168266752921067
8989074815490,-0.0035480147828324603,-0.011653820391189996,0.002703014304234928,0.05172671454646206,-9.59598312466805,1.0257173703117988
8989075805890,-0.003878538416944959,0.008027507287982266,0.0013323460860483784,0.056680757617446356,-9.595986762631139,1.0306350053147488
8989076805890,-0.0037907565630000864,-0.008022677084473538,0.0033558292783267213,0.056680757617446356,-9.595986762631139,1.016845432875825
8989077801190,-0.0019058836612129981,-0.008033813064416372,0.004228235992678249,0.07550614760308823,-9.577153939525378,1.0256996963899636
8989078796390,0.00040122452319546996,0.011124510260053497,0.005229815869407564,0.08046019057499158,-9.572197833803395,1.0168322394693359
8989079786790,-0.007444320058947565,-0.012020536780365555,0.0034653497330630247,0.07055210453210393,-9.592029532418891,1.0493329019837103
8989080786790,-0.007032136589893595,0.0028941632073324827,0.002561830261931279,0.07550614760308823,-9.600960330496003,1.06310729828226
8989081781990,-0.007511705186084112,0.012661078075715586,0.0041354296776253685,0.06163481535241193,-9.61979679157562,1.0542456882755251
8989082777190,-0.011462135475158352,-0.010625883215492307,0.0029853442782670865,0.041818613839593136,-9.60589533600198,1.1015658684128304
8989083767590,-0.005376691747931884,0.012154651204941393,0.0037489913840915105,0.03785538239486673,-9.605892425633721,1.101571651658296
8989084767590,-0.011734152138325297,-0.01938852074636751,0.0015463674738745905,0.03785538239486673,-9.638625976718368,1.0729779162087856
8989085762890,-0.007754142733730847,0.016425632366295524,0.003283507196027719,0.041818613839593136,-9.643588630771623,1.0916820890508159
8989086758090,-0.006671434590767296,-0.004001938502231864,0.0031411337271380936,0.03785538239486673,-9.672350909059137,1.0965867505701072
8989087748490,-0.005560314582167897,-0.012387967036046464,0.0006966940526274739,0.03785538239486673,-9.701117043714756,1.1103504538703561
8989088748490,-0.009503881035762001,0.020455371951792645,0.0006814500481084019,0.018039195546029216,-9.69118300458091,1.1153131952365039
8989089743690,-0.006065931907835019,-0.013663584530771922,0.005206503072343858,0.018039195546029216,-9.68225584446689,1.1064564340394014
8989090738890,-0.007676115870057318,-0.0037526583220748935,0.004024219458689499,0.04677267157455871,-9.686245307100924,1.1202006103626398
8989091729390,-0.005997002065024371,0.015535126897447522,0.004652204297398944,0.056680757617446356,-9.706090611568776,1.1250930951958729
8989092729390,-0.0038123618060069233,-0.01717963966115854,0.005175625792626761,0.04677267157455871,-9.738816886826513,1.1300028466693064
8989093724590,-0.005633907678783448,0.009666428042550024,0.0005960891842679214,0.03290133932388241,-9.743766444107113,1.143808180083132
8989094719790,-0.006929834401758888,-0.006992036330149689,0.00011028942420586267,0.014075949338240565,-9.724905972443237,1.1300631036366817
8989095710190,-0.006655166697357474,0.0028874745547155037,0.0035643859488215714,0.018039195546029216,-9.706062235437512,1.0916603356142325
8989096710190,-0.006022406668220475,0.004793892984706012,-0.0018198144633109086,0.041818613839593136,-9.691200466812216,1.067999776877163
8989097705390,-0.002935657799493215,-0.018384919957315626,-0.004245557192780253,0.02299323861701351,-9.701106129814798,1.054228596452751
8989098700590,-0.006867416060046207,0.019446720216167092,0.00016457722618142597,-0.009703476188233043,-9.710009279350018,1.0493433795594722
8989099691090,-0.004805471714633182,-0.012010575184024867,-5.5886144925650257e-05,0.018039195546029216,-9.69118300458091,1.0355303499426929
8989100691090,-0.008949561208087913,-0.010889076323493296,0.003728630961128342,-0.0007861944396126558,-9.672322532917033,1.0257250003957423
8989101686290,-0.006992768229155761,0.019582584171478387,-0.0017161672254820525,-0.019611576994182908,-9.64354351998766,1.0257784566515893
8989102681490,-0.005690984464310446,-0.01450072321210916,-0.0024540426412671974,0.009121906366337237,-9.634637460084182,1.0257445926265603
8989103671890,-0.005032209263999293,-0.0015842211690232297,-0.004752096296829661,0.004167855963362291,-9.65348046950053,1.035584641721776
8989104671890,-0.007915581207377294,0.0012784074910642262,0.0006715004275220605,0.027947281588916864,-9.648538188052225,1.0207797130070568
8989105667090,-0.006677325010857417,-0.006482905717452959,-0.0015181380720102242,0.04677267157455871,-9.643592268745477,0.9971174222804575
8989106662290,-0.005261048990695994,0.007934621415011132,-0.003808310245876398,0.056680757617446356,-9.653519031942379,1.0118685954199622
8989107652790,-0.005195163294938672,-0.017393094740196336,-0.0008441424120372723,0.041818613839593136,-9.614822496116004,1.0020755021739998
8989108652790,-0.004751031351488449,0.01105389635229044,-0.0016556551976250498,0.018039195546029216,-9.6197647774705,1.0021057211749114
8989109647990,-0.005280576499663401,-0.0003384906705380733,-0.0032372076024264527,0.027947281588916864,-9.64357844446642,1.0069946209847473
8989110643190,-0.006188579740547876,-0.01235946917826673,-0.004194520002623238,0.05172671454646206,-9.638636163023497,1.006964401962527
8989111633590,-0.004985200114670104,0.018313301149890514,2.5591123659716303e-05,0.04677267157455871,-9.662438916130299,1.0404392711996717
8989112633590,-0.0063116186457581195,-0.011272585890291724,0.003466949321810641,0.04677267157455871,-9.68227694467205,1.0354964859283626
8989113628890,-0.0044296759823503045,-0.01250967290387018,-0.0006877933449232587,0.06559804679713836,-9.686259131369141,1.0118260123745118
8989114624090,-0.005112909710312419,0.01745556296208047,-0.0034930236420797596,0.07550614760308823,-9.706104435847834,1.049222623636696
8989115614490,-0.0074386665622315365,-0.009608086650703437,-0.0024153551636597837,0.056680757617446356,-9.738824162752616,1.0541453875593594
8989116614490,-0.00626986550964978,0.006435802268111281,-0.004066343037928577,0.056680757617446356,-9.738824162752616,1.0492205233955858
8989117609690,-0.0006510542338125968,-0.008770948473913381,0.000706181346484285,0.06163481535241193,-9.706094249542632,1.0443180009629358
8989118604890,-0.006532747466148189,0.001522957560966598,0.0009198434859916636,0.056680757617446356,-9.710058028096997,1.0492465100416304
8989119595290,-0.0009753535667445705,0.013553148384740588,-0.002779515121415918,0.0844234367827802,-9.715038144303971,1.067916100733658
8989120595290,-0.002449308419851778,-0.02529226525987365,-0.0016591919194283633,0.1082028697403254,-9.715055606546043,1.0678814011962363
8989121590590,0.001544908775427201,0.016544350870585436,-0.0013867498983133283,0.09928558056063343,-9.748774936544544,1.07771367459323
8989122585790,-0.0002622302812727191,-0.003745400973228577,-0.0020211598339527188,0.08046019057499158,-9.733881881309692,1.072829722548709
8989123576190,-0.0009195027458109685,-0.016012421926973643,-0.003984682676714833,0.06163481535241193,-9.686256221000884,1.0591105144632946
8989124576190,0.002439903523919337,0.023059609639723692,-0.0018470451250193333,0.07055210453210393,-9.691221567028144,1.0590930224734971
8989125571390,0.0024788616572544477,-0.01367842107532961,0.0025451881312669646,0.07055210453210393,-9.701141054298944,1.0679488872257035
8989126566590,0.0021229192941309184,-0.0047511708888088346,-0.0029136494285983174,0.05172671454646206,-9.686248945063939,1.0630649343265886
8989127556990,0.0022683859945916377,0.0036319400774906044,-0.0007240435720015934,0.07550614760308823,-9.66246001633546,1.0591117792026217
8989128556990,0.0017450607439797525,-0.005121731831405036,-0.0036678292278481137,0.09433152282566785,-9.638667449533859,1.049256086650807
8989129552290,-0.0014768079000978332,0.014052673047813977,-0.0021472178127332304,0.056680757617446356,-9.638639800986585,1.0305964735681747
8989130547490,0.0059884387476397075,-0.01743582445622897,-6.107436761933899e-07,0.041818613839593136,-9.658466915628377,1.0542396577457172
8989131537890,0.0016418757148215207,0.004393305724760904,-0.0020971044518252107,0.056680757617446356,-9.658477829528335,1.0542179705374852
8989132537890,0.008936585258280727,0.007132553717634764,-0.0034811180245689715,0.06163481535241193,-9.638643438960441,1.0256643804191745
8989133533090,-0.0038283128509281066,-0.023923476033665472,0.0009892523494460957,0.06559804679713836,-9.648565836599499,1.0443641901549652
8989134528290,0.007209874101523246,0.02089032170792146,0.00238948043059251,0.06163481535241193,-9.648562926231241,1.0355052650267829
8989135518690,0.0032576630940069524,-0.0031538407793686024,0.002238009877528099,0.03785538239486673,-9.648545463989167,1.0256901189262828
8989136518690,0.003870291653514553,-0.009783302238289365,-0.00031840777732950213,0.009121906366337237,-9.634637460084182,1.035594438264482
8989137513990,0.00291795877527342,0.012633077617312895,0.0027229189450370065,0.009121906366337237,-9.643564620198203,1.011946955503721
8989138509190,0.004117740781497561,-0.011433997332074019,0.003559176146220834,0.027947281588916864,-9.696150024092818,1.0355114113030732
8989139499590,0.0021625231714748564,0.012004413302390653,0.0035992608935153866,0.03785538239486673,-9.69615730002976,1.0542113897597205
8989140499590,0.0022296331100256778,-0.012782899240707881,-0.0007101782356352805,0.04677267157455871,-9.658470553602232,1.0443827004329431
8989141494790,0.004269751244113749,-0.00025983278037308016,-0.0006312303976890453,0.041818613839593136,-9.648548374357427,1.0591734819867127
8989142489990,0.0017716654537575129,0.006136924144418424,-0.00020358143998358644,0.056680757617446356,-9.672364733327354,1.1064090083454594
8989143480390,0.0011971552423479734,-0.02430157884648077,-0.0017891584427518013,0.1082028697403254,-9.710095862960241,1.1486536294516891
8989144480390,0.006557342432116907,0.010635516229804763,-0.0009405352545279171,0.1082028697403254,-9.6773623117764,1.0826900447220247
8989145475690,0.003911117363927238,0.007510655626532997,-0.0007027070383839491,0.09928558056063343,-9.629743927393694,1.0443320580872242
8989146470890,-4.7300916428720356e-05,-0.019160052565804983,-0.001750327980621795,0.1082028697403254,-9.653556866805623,1.096501122535695
8989147461290,0.003426521865096732,0.015149517764563941,0.0004800121966080685,0.1082028697403254,-9.682322055461398,1.0826855642068232
8989148461290,0.004885902676893802,-0.005410716979368034,0.0014648084679585918,0.08046019057499158,-9.648576750499457,1.0443425029467333
8989149456490,0.004395698849249849,-0.00014172216287555023,0.0006238889337851642,0.06163481535241193,-9.595990400604995,1.0355527578036703
8989150451690,-0.0020202684188477963,-0.0032402549304308623,-0.001635891864913263,0.06163481535241193,-9.605909887875795,1.035543796773357
8989151442190,0.001871266210332144,-0.004914822979670837,0.004363293489155321,0.04677267157455871,-9.643592268745477,1.0631106951353442
8989152442190,0.001306003713972978,0.021796268232352915,0.0007827286916011486,0.027947281588916864,-9.638618700781425,1.0729923743548357
8989153437390,0.002719806391776618,-0.018082313073958998,0.005776700777935812,0.03290133932388241,-9.619775691370458,1.0493627527114995
8989154432590,0.0010242031156533424,0.00887713340331587,0.003330543448206839,0.014075949338240565,-9.61083470697738,1.044473423706881
8989155422990,-0.003120173874807285,0.009881448462668856,0.0056086196983341045,-0.024565619966086263,-9.638580138339648,1.0307150302942487
8989156422990,-0.005078124888078413,-0.0210670737021749,0.006533242022787411,-0.043391002619737495,-9.677250989992546,1.0405573995749475
8989157418190,-0.0016004431497295152,0.014884226097380639,0.006390807932462685,-0.01465752659120799,-9.677272090197706,1.077944461589467
8989158413390,-0.0033945388539848406,0.0001339947013401857,0.0009007172334874747,0.009121906366337237,-9.67728955243978,1.0779097620520455
8989159403890,-0.0034345030548049607,-0.01680907872194936,0.005929806093115279,-0.009703476188233043,-9.667357186895225,1.0828710567574378
8989160403890,-0.0019824485600798093,0.01275475007877673,0.006502962035684947,0.014075949338240565,-9.643568258161219,1.086797707670074
8989161399090,-0.0042975340219243725,-0.009777182282499387,0.003721860443586465,0.03785538239486673,-9.634658560289342,1.0444172180383822
8989162394290,0.0014097565464875807,0.012508847715739853,0.0034795442345872786,0.06163481535241193,-9.648562926231241,1.049294837465707
8989163384690,-0.0036757454125828683,-0.012531837921949809,0.002948372660671825,0.08937747975468356,-9.653543042526566,1.091603728945659
8989164384690,-0.00025249702174993255,0.0003617519262179708,0.003151049994836976,0.09433152282566785,-9.648586936804659,1.1201652625406566
8989165379890,-0.00034027277101162864,0.016418018198454926,-1.6252869406551546e-06,0.07550614760308823,-9.658491653807394,1.1438230735851058
8989166375090,-0.0019407831937898043,-0.02281232893254006,0.0028730529853939193,0.06163481535241193,-9.658481467502192,1.0916397320680282
8989167365590,-0.0021098459136119395,0.012037856727405753,9.948649621832877e-05,0.04677267157455871,-9.69120410478607,1.0827671400877648
8989168365590,-0.0032520179129449786,0.0072762850220602915,0.0008234204309368939,0.05172671454646206,-9.69616748633489,1.1152595570594623
8989169360790,-0.005327331197430991,-0.02015059655095281,-0.0006115627300366899,0.07550614760308823,-9.677338301192215,1.1014521931913337
8989170355990,-0.002354030429095843,0.015077654867251815,-0.005776178428872181,0.0844234367827802,-9.677344849534329,1.0965143167968678
8989171346390,-0.00454940339686194,-0.009989072016528353,-0.003305146053286751,0.05172671454646206,-9.69616748633489,1.101469867113169
8989172346390,0.0017657589032572477,0.003640407627837877,-0.0019771403771843827,0.004167855963362291,-9.691172818270324,1.1104085725734425
8989173341690,-0.003526378685538917,-0.0024671129722154544,-0.004637276418132273,0.041818613839593136,-9.662435278156444,1.1015147915656374
8989174336890,-0.001797937292197795,-0.015516350188526006,-0.002472954407035032,0.0844234367827802,-9.653539404563551,1.086686093844067
8989175327290,-0.0029734620095147905,0.01882591455627454,-0.0033648204180564286,0.06559804679713836,-9.624759445628873,1.0867395509653517
8989176327290,-0.0038170395075735743,-0.019131020819490297,-0.0047498002548975685,0.041818613839593136,-9.614822496116004,1.0631439108651128
8989177322490,-0.0051552138134998,-0.00046421495437447974,-0.00323844971185116,0.027947281588916864,-9.638618700781425,1.0306384021679227
8989178317690,-0.00863636201671884,0.015351628411819813,-0.006131361455546147,0.014075949338240565,-9.66241490554604,1.0493516914400758
8989179308090,-0.005090201549032239,-0.02615430818380967,-0.0027861528923540328,-0.0007861944396126558,-9.643557344261259,1.0730298224393822
8989180308090,-0.0056265038093069675,0.012807014115522923,-0.0008882024910603597,-0.0007861944396126558,-9.61479120960564,1.0444915268448072
8989181303390,-0.005273162814270893,0.002811559094765874,-0.006478019874049992,0.014075949338240565,-9.61083470697738,1.0592480160012068
8989182298590,-0.005312822782569561,-0.013998103344119404,-0.002953668570484241,0.041818613839593136,-9.629701726972606,1.0631304693196877
8989183288990,-0.0009726757772824581,0.014695710811462516,-0.005532094823859051,0.02299323861701351,-9.64853455008921,1.0355616517724364
8989184288990,-0.006823980995003318,-0.015373297269916195,-0.002581959907009229,-0.0007861944396126558,-9.634630184147237,1.06318815879575
8989185284190,-0.004993783052594215,0.014675574063555005,0.0007536801593798909,0.041818613839593136,-9.643588630771623,1.0867572248870423
8989186279390,-0.005039612432337193,-0.004724131262311502,-0.003393270686666918,0.06163481535241193,-9.68228785857201,1.086693361773322
8989187269790,-0.0053048384980270615,-0.010617736333699144,-0.0024288040059965953,0.056680757617446356,-9.686252583027027,1.0729074334933124
8989188269790,-0.005481009364950688,0.021217164205337972,-0.003717227195435334,0.08046019057499158,-9.691228842954246,1.1152221089748264
8989189265090,-0.00821302972181463,-0.018251828903790637,-0.002346329950809042,0.0844234367827802,-9.69619149691915,1.1437760100244538
8989190260290,-0.004390643409553601,0.004014916259305112,0.0021849059932320496,0.07550614760308823,-9.706104435847834,1.1152158964915828
8989191250690,-0.006123191304698478,0.01534376554350797,-0.00626463149487693,0.09928558056063343,-9.701162154504104,1.0777566868550057
8989192250690,-0.005085183155826506,-0.024034365182916996,-0.000889683930627193,0.14189038874075827,-9.701193441014393,1.0589799628523167
8989193245890,-0.006762448711670348,0.01069091179089636,-0.0027811594859724047,0.14189038874075827,-9.715080344714218,1.1013212724313306
8989194241090,-0.009702605925023994,-0.010492365722147949,0.00034595202302944387,0.13693634576885494,-9.710116963165403,1.1101978078896415
8989195231590,-0.0070350590107414995,0.001675649838747413,-0.003845442912532459,0.12801905658916296,-9.667458322368494,1.0964596611646076
8989196231590,-0.007038320725214468,0.0002899247794211704,-0.0024746905415616426,0.12306501351817863,-9.624801646049963,1.0827158494360862
8989197226790,-0.005689807499509045,-0.014005610232090956,-0.0013214429109427279,0.13198230279695156,-9.63472768166295,1.101408312679136
8989198221990,-0.007130305728814973,0.014526439849494997,0.006530887356053174,0.12306501351817863,-9.634721133320763,1.0679322961114468
8989199212390,-0.006930121806994201,-0.007109223840518607,-0.001396151457249615,0.11315691281130973,-9.624794370113092,1.0443162972108202
8989200212390,-0.009948300980558397,-0.008109480722218988,0.0001119872270622397,0.1082028697403254,-9.582137693695365,1.0680014760966559
8989201207590,-0.009495624069863557,0.023938730928947827,0.00534753734203422,0.08937747975468356,-9.568236965716483,1.0355373652219317
8989202202790,-0.00834140467487994,-0.019431143183954218,0.007307257485178612,0.06559804679713836,-9.592025894445035,1.072979549242778
8989203193290,-0.006769016303486953,0.007876878761006283,0.007864688817681669,0.056680757617446356,-9.582099858832121,1.0680766584385075
8989204193290,-0.011558231587180525,0.001885511971529391,0.006583967647821735,0.041818613839593136,-9.55828255396154,1.0631949877123061
8989205188490,-0.012709277636406599,-0.006634354215822497,0.007156877754686968,0.018039195546029216,-9.558265091730235,1.0730794154573797
8989206183690,-0.015687794637503583,0.009177079370039004,0.004764268847385431,0.004167855963362291,-9.587021040075268,1.025794833961361
8989207174090,-0.013722824040089506,-0.010135252879253952,0.006383351618930109,0.02299323861701351,-9.587034864348942,1.0543316457374392
8989208174090,-0.01541725596500301,0.01731389684899696,0.0060735201189581894,0.03290133932388241,-9.592001883871616,1.044462978847372
8989209169290,-0.01421453460585937,-0.005518439454887846,0.010305872269788805,0.027947281588916864,-9.629691540667404,1.0542858849286836
8989210164490,-0.02289176143906484,-0.008358012792763738,0.007929353087539514,0.05172671454646206,-9.638636163023497,1.1251612577260075
8989211154990,-0.01906848446885445,0.014288685881608296,0.011710349889501405,0.056680757617446356,-9.600946506216944,1.1015486617198003
8989212154990,-0.025286056138266986,-0.011210821505117041,0.004027734002381933,0.03785538239486673,-9.577126290978102,1.0917479101737881
8989213150190,-0.024398172942037406,-0.007714227750785115,0.005679911497574805,0.03290133932388241,-9.582082396600816,1.1301646690921745
8989214145390,-0.024848746244637135,0.014336040329439567,0.006584202963533514,0.06163481535241193,-9.587063240490973,1.0867793854422794
8989215135790,-0.02542181332632724,-0.015509766637139079,0.011276174227104429,0.07055210453210393,-9.600956692532915,1.0966035562416099
8989216135790,-0.025746430710909294,0.006666723699595943,0.011929995454105082,0.041818613839593136,-9.60589533600198,1.1252052865881739
8989217130990,-0.029428647702777016,-0.00944592726909469,0.004679866770026965,0.03785538239486673,-9.624739073018542,1.1340587525915562
8989218126190,-0.0263696605488795,0.008832741893626941,0.005673141114583774,0.03785538239486673,-9.600932681948727,1.1862839590399543
8989219116690,-0.032540242501687036,0.003211151555473024,0.006406719588833341,0.03290133932388241,-9.592001883871616,1.1725095627414046
8989220116690,-0.028197211956137957,-0.020103988030110077,0.0052308804122133245,0.06163481535241193,-9.614837047989818,1.134033014084448
8989221111890,-0.03174990265220538,0.018623743271154423,0.005881835265892017,0.09433152282566785,-9.610893642035016,1.1625531685501598
8989222107090,-0.036221309877588294,-0.012432751481631255,0.005182355319618524,0.06559804679713836,-9.605912798244052,1.1813141316765892
8989223097490,-0.03808962016351771,-0.005408253347224556,0.004984983477024259,0.04677267157455871,-9.61978587767566,1.1626145030181874
8989224097490,-0.03476957173807617,0.01698685079225202,0.00926770044426889,0.04677267157455871,-9.582092582906018,1.1252195636353823
8989225092690,-0.039118838426759464,-0.015543238634554393,0.0029116481719972187,0.027947281588916864,-9.544385463857319,1.1252810853420847
8989226087890,-0.039827545474202475,0.0036158695259119397,0.005679113170370691,0.009121906366337237,-9.582064934358744,1.110499912269994
8989227078390,-0.04210211887256848,-0.0017636257821115123,0.005524038756805167,-0.03348290924485921,-9.553267513187379,1.0967983789717077
8989228078390,-0.0403458572293641,-0.0030252951503395437,0.0060119198720350875,-0.07608772109097936,-9.501656028204929,1.0919822812348918
8989229073590,-0.04145902312630921,0.004507975980026065,0.003933628259500985,-0.09986715038252925,-9.524453575779242,1.091996370226423
8989230068790,-0.044396208242882824,-0.015408795527056578,0.00455994388436938,-0.104821199002047,-9.553215126467853,1.0969024775706715
8989231059190,-0.048353118463477264,0.011765673510655737,0.010152323855121482,-0.13256386707031395,-9.53434810647001,1.0871102577455896
8989232059190,-0.060439458724326635,0.001986698660093267,0.01878047230845978,-0.3267625458270445,-9.443940623781133,1.0126171991917938
8989233054490,-0.06526921982192063,-0.021190227211910856,0.021021547205646085,-0.6735458809265096,-9.229430338898025,0.9236842139677527
8989234049690,-0.05878635948499804,0.01026372417891161,0.016447777053260716,-1.1144561215659161,-9.077341053648766,0.6604916699617808
8989235040090,-0.06163243873971836,-0.024255993525469508,0.006309437263309832,-0.9390829048266814,-9.367113000281472,0.8717434951399597
8989236040090,-0.06701477009559315,-0.015361688935947776,0.010150674979099493,-0.3128912136754492,-9.71474637937342,1.196542456102839
8989237035290,-0.071357178968018,0.008236496001291296,0.005305861218870021,-0.18904001304964854,-9.810062892622444,0.9313177111713247
8989238030490,-0.07694703242529313,-0.017502899114085476,-0.0047642592564227865,-0.16526058375809866,-9.833885799931794,1.007104507348353
8989239020890,-0.07363905035542635,-0.0001815089775043799,-0.012310252969452814,-0.104821199002047,-9.781358603399411,1.0868466499176508
8989240020890,-0.0707089636823049,-0.036466938756337795,-0.023984057609042042,-0.11869253303618048,-9.86268613147411,1.08285356843497
8989241016190,-0.061579571359558063,-0.0017486345702825215,-0.031429585215799305,-0.18904001304964854,-9.966787196542937,1.238487978488599
8989242011390,-0.06224449282699716,-0.017233546411799434,-0.040817736041468766,-0.19894810642452682,-9.900320491186188,1.4690463021075948
8989243001790,-0.06040190068683839,-0.03514350588020131,-0.04358019700430166,-0.12760981944160574,-9.842841554592283,1.610830449790501
8989244001790,-0.05682364950505616,-0.009788965424310733,-0.05383269571495122,-0.13256386707031395,-9.909296400051264,1.6915455069857779
8989244996990,-0.0583877311232649,-0.033566308233653086,-0.05850664182225042,-0.13256386707031395,-9.980715573161522,1.6954208329014413
8989245992190,-0.06371563898399166,-0.054809314732752176,-0.0660375600010579,-0.18507677427293148,-9.914217581290336,1.5921352354443608
8989246982590,-0.05183481920183955,-0.02566087646290101,-0.06474655194787055,-0.3366706466329944,-9.818881641425445,1.5786528961083635
8989247982590,-0.057854080706063515,-0.07364450287319915,-0.06241971354041646,-0.5645568462726959,-9.772093839980194,1.550463266870373
8989248977890,-0.0506646311402308,-0.0622686637068465,-0.06198803148359383,-0.7349761086184006,-9.690630033635415,1.672922243781736
8989249973090,-0.056978056075455495,-0.07518487702297669,-0.05615937822789384,-0.8964780522582889,-9.637939856210709,1.711619296400348
8989250963490,-0.051596372550715607,-0.08438385915977378,-0.04996505704630186,-1.1530977279265202,-9.637751409543155,1.7070688980219821
8989251963490,-0.04680042205194733,-0.07557889022203147,-0.035992699244841275,-1.4473682129930783,-9.54330207737177,1.7450124234937336
8989252958690,-0.05018444713272765,-0.12511562875078935,-0.026156332017487148,-1.7129051778410016,-9.376463291270001,1.7219111430019332
8989253953890,-0.047250568007037114,-0.1066271707238379,-0.017507552349079893,-1.9546626653431116,-9.319746762281193,1.764668852186569
8989254944390,-0.047915329898953134,-0.12211454696521402,-0.003181822673433696,-2.1736316496184322,-9.347359771605552,1.737384024564386
8989255944390,-0.040453701078084124,-0.15517220108853563,0.011124741476689574,-2.3727843437034797,-9.285713839629734,1.775159181083785
8989256939590,-0.037243397754742384,-0.1260706846979835,0.026620304099772892,-2.5768911988649283,-9.157605786079566,1.7893623031927355
8989257934790,-0.028660016619588308,-0.1630205141015702,0.04164974193082181,-2.7621726198506296,-9.142590495249177,1.84184969488438
8989258925190,-0.027266889320128582,-0.15844930403467422,0.052843425519591966,-2.9187205204195337,-9.18116021143972,1.95039019676128
8989259925190,-0.019977595948762562,-0.15805263533828207,0.06762916503791426,-2.9464630668163885,-9.251566684869527,2.05477445805909
8989260920390,-0.013890490122926393,-0.18782010991703274,0.07681807251865763,-2.8711615658269887,-9.328000898539333,2.191506869604105
8989261915590,-0.006192221308459428,-0.17384309195279052,0.08253564536235558,-2.828556772409926,-9.261572755613523,2.181655009381483
8989262906090,-0.007134230306520723,-0.20026060116260463,0.07909651073231395,-2.5768911988649283,-9.224064269504982,2.0345608033808062
8989263906090,-0.0025932921198510445,-0.1929369824904218,0.06583250226946101,-2.092385249840766,-9.333532530568963,1.9066934317231272
8989264901290,-0.008747600970317838,-0.19166307406347072,0.06586014160721067,-1.675254427395842,-9.495522894857942,1.7877419442950309
8989265896490,-0.004294227231465664,-0.22142995669882676,0.0527203637027782,-1.2997375425516173,-9.63367630930413,1.48074247924303
8989266886890,-0.006642042432427359,-0.20457703891457168,0.042679206785520965,-0.9915957842866318,-9.771780247249726,1.4043252747578852
8989267886890,-0.005824774027236256,-0.23094441905634722,0.02882095412943585,-0.7260588194387086,-9.838433725684808,1.3378846042728574
8989268882090,-0.007247477438325196,-0.2480407948189719,0.01666381911139593,-0.5457314710501163,-9.862372538743642,1.2154631425289861
8989269877290,-0.015988798419988452,-0.2247846297471482,0.008317065965655112,-0.48826451899305734,-9.862414739153964,1.2104544211657169
8989270867790,-0.020326491259593644,-0.2523915642990031,-0.004780914060690787,-0.38422949788410354,-9.781153422083232,1.144382816498734
8989271867790,-0.017425060455943206,-0.2475967480177757,-0.01278732552906512,-0.3267625458270445,-9.682002641983646,1.1207492671265342
8989272862990,-0.018351104215839242,-0.26725691424375825,-0.014549398672753018,-0.355496021855574,-9.638337122166917,1.134620195600669
8989273858190,-0.017243230076844744,-0.27701378880295857,-0.018383332735476304,-0.37927545481311925,-9.658157688466595,1.2528338296955381
8989274848590,-0.016094270885192323,-0.26938656452877846,-0.016076494365205692,-0.5021358512437336,-9.610455630847234,1.3190493947919726
8989275848590,-0.02046218341713881,-0.309818590923849,-0.02098062793967118,-0.607161669215883,-9.533999589256705,1.319271649974132
8989276843890,-0.007209160959407794,-0.2849174529578108,-0.022984988145341636,-0.5645568462726959,-9.576683914232474,1.4373678039782867
8989277839090,-0.008875865017205083,-0.29895687480979405,-0.02094241092843083,-0.5120439372866212,-9.671947094760743,1.645034698867373
8989278829490,0.00022235290508294033,-0.3306994930202957,-0.019178978194583217,-0.49817260503594496,-9.767182845146827,1.8616225706122949
8989279829490,-0.0026000399039697586,-0.3019860636690514,-0.02085690212286779,-0.49817260503594496,-9.923907148968127,1.9934675351923092
8989280824690,0.003104497620601573,-0.3341058975674169,-0.016701638884726012,-0.5972535537459518,-9.94764078071209,1.9699513097673014
8989281819890,0.010118860127608709,-0.34368294209003647,-0.011142276251437874,-0.6735458809265096,-9.842440650681791,1.8480208046388966
8989282810290,0.004108236616477906,-0.33478314063129866,-0.007926416222367404,-0.607161669215883,-9.818683008441921,1.6686801768295458
8989283810290,0.004300673018387581,-0.35973131338360226,-0.00571287742879337,-0.5219520232304279,-9.804858677685237,1.4932430791673468
8989284805590,-0.001548193695258898,-0.3355380045166304,-0.0037735977169694145,-0.4030548731066832,-9.828751433954803,1.3659863946792972
8989285800790,-0.0017490239212289913,-0.3673959800887361,0.0020327637660825792,-0.2940658236898073,-9.88140399484377,1.3185011435392877
8989286791190,-0.009664927707929781,-0.36712793679378714,0.0038155713161915922,-0.29901988142477287,-9.909174164368759,1.2623397377960264
8989287791190,-0.003938133591740101,-0.33659178728547523,0.007267988277921763,-0.19399406345262346,-9.980670462373483,1.1626396614755656
8989288786390,-0.015133012917140297,-0.39453586448938405,0.0010110008256153857,-0.03843695964783414,-9.985743492111553,1.0402714889652633
8989289781590,-0.019704575252912766,-0.3615644155644385,0.0008730937129744652,0.12801905658916296,-9.953132176710794,0.9120114616377761
8989290771990,-0.03808148268271877,-0.3745338299282741,0.0009669314765068174,0.35590527089284574,-9.999920924067467,0.7087322425381797
8989291771990,-0.05010957291839685,-0.41284488663343033,0.0026253024323487657,0.43120677188224515,-9.933516791715144,0.4210700653161636
8989292767290,-0.05920540558579111,-0.38008434220066595,-0.0020170283798872056,0.49759104254603964,-9.753034845598071,0.3177140194375781
8989293762490,-0.06493426591940792,-0.4114914967089425,-0.0066046004672425575,0.6353135679914451,-9.67774939142748,0.2840920661795797
8989294752890,-0.08045792525013024,-0.38686443251519825,-0.009274952799523502,0.7443026321713833,-9.682789170386043,0.2041456714770018
8989295752890,-0.08825820004380167,-0.3908326650523989,-0.012038267902277848,0.8631997823942089,-9.66303845304396,0.28869783382698233
8989296748090,-0.08637686710584501,-0.3923358772971424,-0.013309001675851114,0.9295840530580034,-9.535128086553284,0.3645595311284789
8989297743290,-0.08707905614613547,-0.3704141179722561,-0.011651986574680567,0.8869792596409406,-9.34960730747757,0.3884286566454861
8989298733690,-0.0879019935118863,-0.3996596178405606,-0.0019363448770982786,0.7353853429916912,-9.168965290770071,0.4075274487119093
8989299733690,-0.08748776319210388,-0.3838934901575972,0.0019337981091667091,0.5788374423237063,-9.01708577079847,0.5014655231399119
8989300728990,-0.09174272313481126,-0.37651205148738126,0.006765027126929772,0.5213704608396037,-8.936697237142258,0.7193011207773677
8989301724190,-0.09243106817528288,-0.4019476092641187,0.006970438257220093,0.559021211284763,-8.893080466166317,0.7429250252836944
8989302714590,-0.09134035760966173,-0.36578153602192226,0.014992397254351274,0.659092986185928,-8.889185590569632,0.6196608631678245
8989303714590,-0.10115208172929172,-0.37013979212187714,0.016122207032797254,0.7829441793806571,-8.969622872956595,0.5770536400776825
8989304709790,-0.09613138699920071,-0.3725639196493103,0.020983577709204285,0.9295840530580034,-9.145301508115274,0.5628914216538289
8989305704990,-0.10174637767432754,-0.3557505847787757,0.020362499031878003,1.048481203280829,-9.392377997631474,0.5290057122014062
8989306695390,-0.09926514259733633,-0.3692833030160183,0.018757099890284092,1.1673783535036548,-9.692027012873114,0.5758403164167835
8989307695390,-0.10724045404654609,-0.3409586875811339,0.022738578353739516,1.228808463091048,-9.939062247913796,0.6838746785744086
8989308690690,-0.10730375352116887,-0.36776725234990304,0.021552543073669665,1.261505170564304,-10.068036754908867,0.8629757403535855
8989309685890,-0.11028878897761261,-0.35472390593089326,0.021274108663366337,1.3328434842990826,-10.162321432570256,1.060766274257299
8989310676290,-0.11086504822291333,-0.3326921252347126,0.02569183154323631,1.3377975272709859,-10.19109120518889,1.1887796424431056
8989311676290,-0.11785171031293039,-0.3646367882741992,0.028632700356520557,1.3001467768258268,-10.148410518197819,1.3395740974096357
8989312671490,-0.1224313211513031,-0.33510045504591185,0.0381326559289584,1.237725811322989,-10.086865940105746,1.3682849048691894
8989313666690,-0.12368439927921095,-0.33363517439124146,0.04605112706904317,1.1237827041711477,-10.044129228414526,1.3734145693831554
8989314657190,-0.1269944464579008,-0.3518282453906678,0.05258742750102641,1.0058764098637663,-9.948818026761176,1.279115207149845
8989315657190,-0.13457681545604375,-0.3167482438860286,0.05837026268084576,0.8919333026128443,-9.792010049604027,1.0814433557275793
8989316652390,-0.13486573884085581,-0.33269957440181047,0.06553986063840128,0.8731078683380156,-9.672964270240941,0.911177800939393
8989317647590,-0.13802340860954718,-0.28632649664767557,0.06561428515025428,0.9533634122993183,-9.592677818052463,0.6185961334418831
8989318637990,-0.14898764453321586,-0.29981826397785677,0.06492889861200202,1.0861319537259881,-9.516396398904565,0.5051994016065995
8989319637990,-0.1489610601871688,-0.28857922439260336,0.07203165266567028,1.1862036696739853,-9.402398620326796,0.4391631509104139
8989320633190,-0.15289128699763,-0.2500629540258338,0.06565598665194639,1.2149371898926207,-9.29826794236935,0.3682972029326126
8989321628390,-0.15395454097358813,-0.2746215091837064,0.06611946942105716,1.2099831469207172,-9.226845131296077,0.42549742681208735
8989322618890,-0.1583935917619163,-0.23873413641102853,0.05960200985099699,1.2476338973658767,-9.174301200206115,0.43435474490506987
8989323618890,-0.15017576732952523,-0.21755121129935684,0.05319639765180796,1.3665310475887023,-9.164469024134982,0.4913187139478338
8989324614090,-0.15022981720730066,-0.2403991210429441,0.037859141412533034,1.4755201117686405,-9.23100848883381,0.6418006188414512
8989325609290,-0.14570481171908958,-0.18660673560958357,0.02817369137619438,1.6221599263937376,-9.355106925380467,0.8355144261221907
8989326599690,-0.1429422851478441,-0.187395891269805,0.010092072171057776,1.798523999048417,-9.464347958848753,0.9385807659011502
8989327599690,-0.14265893474701868,-0.17377928079954458,-0.005625388322149509,1.9124672243047562,-9.593382128494522,1.0279305798180274
8989328594890,-0.14551586609527745,-0.15965621534162566,-0.020325959590861205,1.9025591383609497,-9.716373278148371,0.9519910404957173
8989329590090,-0.14941771488903027,-0.1623272216465657,-0.0337574428860754,1.8173494333232454,-9.820463429356769,0.8249596099522972
8989330580590,-0.14721667041792547,-0.1348257390485818,-0.04624954946426989,1.6132425780627158,-9.882804611968597,0.8586901410830798
8989331580590,-0.15190976652028848,-0.1533136277293637,-0.053889140824191134,1.3001467768258268,-9.887534436082266,0.8355031196374777
8989332575790,-0.14673140752793343,-0.14214910881573622,-0.059475280756122406,0.972188846574147,-9.887293602721018,0.8872003644325862
8989333570990,-0.14993076665126062,-0.11342291451586606,-0.06328495269190325,0.6263962788117532,-9.887039672632103,0.8689904582031921
8989334561390,-0.14585002622170676,-0.14139962254542848,-0.059598364858623215,0.33212582317223827,-9.890790993934653,0.7984981439486113
8989335561390,-0.1489124882402506,-0.10792060852255257,-0.06187046592564739,0.10423962353253675,-9.91938978212788,0.6953824311175697
8989336556690,-0.15290313138592793,-0.09503225187026713,-0.05599880669228051,-0.08599581823093391,-9.943056475277194,0.4690945379561474
8989337551890,-0.15167196807005684,-0.10580750189931253,-0.056954233487785444,-0.24155292203572326,-9.985594335480677,0.3845752903845148
8989338542290,-0.15060075609377976,-0.07787938984375008,-0.05488539416396035,-0.3317165888980288,-10.051987553916817,0.3373680733668811
8989339542290,-0.15189993490252443,-0.0959154638505021,-0.05550602768897514,-0.4119721622863752,-10.180879115280902,0.3088044406668306
8989340537490,-0.15269524292670514,-0.06021241591382499,-0.053378516786995456,-0.4694391142443532,-10.313754827721331,0.2526247076921431
8989341532690,-0.1504635485425133,-0.0729870735323779,-0.05598175211287973,-0.4407056530779669,-10.370315870070042,0.20919285708416174
8989342523090,-0.14695489175694285,-0.07715214362505976,-0.052633214098812664,-0.3743214118412159,-10.394171009892291,0.15785585956841874
8989343523090,-0.14270314679259646,-0.03268510612906796,-0.0523436623652814,-0.3218085028551412,-10.404129059511133,0.07306251701361115
8989344518390,-0.14404607163935929,-0.06923162773775335,-0.05936366853037091,-0.3029831128694993,-10.375376749233764,0.04449679497203339
8989345513590,-0.13669425988386547,-0.04229616040157839,-0.06309258061945901,-0.3079371706044649,-10.247414941995032,0.011130508874690567
8989346503990,-0.12986698517215323,-0.024649358806309918,-0.0634953927034969,-0.29901988142477287,-10.133349278871444,-0.002569091944377641
8989347503990,-0.11947960518230327,-0.042577533916917674,-0.06829183666329731,-0.2792036799119541,-10.080792251019668,0.0210888578330658
8989348499190,-0.10935647782463914,-0.01275471277638876,-0.07476998802792166,-0.24650697243869818,-10.004437344897028,0.04967438300946757
8989349494390,-0.10861819337403733,-0.01938459937690805,-0.07732679356257086,-0.22272753948115298,-9.924109419914666,0.021148027481782655
8989350484790,-0.10217734963667159,-0.005733239296287926,-0.08013954860860024,-0.2276815898841279,-9.842768067664178,-0.0024106390238703423
8989351484790,-0.09473001264908817,0.008454430854963016,-0.09010356393278544,-0.19894810642452682,-9.767402578335512,-0.030948703285332606
8989352480090,-0.09390953073983899,-0.016569818319941098,-0.09742823138395759,-0.14148115446654877,-9.724791740291122,-0.11471679910805088
8989353475290,-0.08812469122975036,0.038585771318267376,-0.10510075986729818,-0.09094986486883258,-9.767481886006172,-0.1571829441067576
8989354465690,-0.08403264731222465,0.015430583746059753,-0.11254825079834625,-0.052308291799429474,-9.93812146976583,-0.18103282373865642
8989355465690,-0.07974838348355437,0.020463851259096826,-0.11917713106494639,-0.009703476188233043,-10.147448639828468,-0.06407218665936214
8989356460890,-0.07777944353847079,0.05609237118015295,-0.1282255079324774,0.02299323861701351,-10.30915669801276,-0.008122452175512343
8989357456090,-0.08161773973810367,0.02712505407640544,-0.14497292970797596,0.027947281588916864,-10.423232547342286,-0.045661736667262955
8989358446490,-0.0899661538053241,0.057101461877934745,-0.14499410716154787,0.06559804679713836,-10.442105897373727,-0.06444820495336692
8989359446490,-0.10425744072194816,0.0714936944989904,-0.15589348517488372,0.18449521178302625,-10.46103985596906,-0.1493464744536015
8989360441790,-0.12119169005975226,0.0841440951462434,-0.16742393860125598,0.2697048282423569,-10.380757041765277,-0.5118686055300115
8989361436990,-0.1492388556076318,0.12676745281414437,-0.1765831287409994,0.3648225601716187,-10.228070003341365,-0.9176786251190832
8989362427390,-0.17796044564214308,0.14987536717617955,-0.1912683067669668,0.8255490319490496,-10.190715039481207,-1.3950442032339416
8989363427390,-0.2013147131896497,0.2109410814241211,-0.20759371403887775,1.205029103948814,-10.100728833232225,-2.0652986284629056
8989364422590,-0.24833001874438207,0.20299983078899397,-0.1923209492713855,0.9008505328393682,-9.863434825013261,-2.4655249832374087
8989365417790,-0.27031225271511916,0.20646775064894196,-0.19411164584315369,0.29843831893486766,-9.534664609580886,-2.6396746274480702
8989366408190,-0.3023865227383432,0.2464947007658742,-0.18395365435917044,-0.28911178061882303,-9.277324481137116,-2.44947006458386
8989367408190,-0.3452354773631352,0.24690303549706433,-0.1860772740014472,-0.716150733395821,-9.077633546119868,-2.179768968013822
8989368403490,-0.38341919542941594,0.25394140969665446,-0.16583642550561983,-0.9628623230211644,-8.883035722688126,-2.1319547275102564
8989369398690,-0.44061212263150307,0.29959867660848855,-0.16145980525224865,-1.076805430173006,-8.635961925135165,-2.122700508084506
8989370389090,-0.4690497286317056,0.2832580152790829,-0.1572173776053077,-1.1719231622013486,-8.317483724739937,-2.046431066272777
8989371389090,-0.5182227385610539,0.31946481398512117,-0.1481619268541057,-1.3046915855235208,-8.075356792547772,-1.980025410875336
8989372384290,-0.5417552096863805,0.30496942373466424,-0.14065984097149967,-1.4374601269501908,-8.07525929499961,-1.8567099519031824
8989373379490,-0.5748920752293971,0.32073842080734644,-0.139321137132584,-1.498890236636665,-8.188293122584316,-1.5838847820214035
8989374369890,-0.6071754035639005,0.32544296388149285,-0.13153592251661883,-1.4325060839782875,-8.065343445691827,-1.1258577069881266
8989375369890,-0.6367753364786414,0.2957899886322699,-0.12098153921107875,-1.522669713883397,-7.8510211345476275,-0.7995062403362905
8989376365190,-0.6650948452654972,0.32947810235350683,-0.12279796008579875,-1.7456018853142574,-7.709011880023189,-0.5301549249484181
8989377360390,-0.6990960247869468,0.29849623681586107,-0.11863803703290364,-1.8644990354380022,-7.584933816086938,-0.14769958000324146
8989378350790,-0.7325889769503027,0.26990216804397155,-0.11609455199823962,-1.9269200009408398,-7.523388764945344,0.16271381671984786
8989379350790,-0.7504732593160564,0.3059233347722981,-0.11566878936614644,-2.002221619935656,-7.537220371485574,0.4317089916824012
8989380345990,-0.7805204953073356,0.24649849622573727,-0.11422405714269962,-2.083467901608825,-7.6661112053307185,0.6720446718795878
8989381341190,-0.7926676866882798,0.26419557344467925,-0.11193316688794315,-2.0398723703808153,-7.826834939720312,1.0165767300621895
8989382331690,-0.815926313903538,0.25928285410407687,-0.11565902423461227,-1.8932325557557184,-8.046158467397522,1.426898827019927
8989383331690,-0.8305437506261317,0.24194490069208546,-0.12112720896926815,-1.8456736011631736,-8.188038464911486,1.6857493981767482
8989384326890,-0.8523776320335072,0.2550171675710498,-0.11482288811256149,-1.8932325557557184,-8.169156892977401,1.7045502595994206
8989385322090,-0.8824133592221108,0.20045192319378158,-0.10832629823917349,-1.9497086223712083,-8.165148003687895,1.9311803556514315
8989386312490,-0.9028771096088902,0.2083788410972613,-0.10143387743240342,-2.02600097907789,-8.240478568626225,2.143977756827297
8989387312490,-0.9232831642376695,0.18751024616250467,-0.09912907677020362,-2.0309550221488744,-8.439852272939078,2.4028529828601015
8989388307690,-0.9359407995481581,0.1486778127606364,-0.09333179442660978,-1.9308833062008774,-8.686914938143696,2.8319324973783573
8989389302890,-0.9522004088067082,0.18086282553558058,-0.07963729012833147,-1.8833244697128306,-8.853593653797525,3.04840681135365
8989390293390,-0.9691277621383771,0.1431712396521292,-0.07356813791868826,-1.78424349157578,-8.97269742219665,3.2845484116639705
8989391293390,-0.9823586564566578,0.12761343542686598,-0.0614626234752733,-1.5940080276181758,-9.148408071438764,3.4722421815453215
8989392288590,-0.9873332852534202,0.14949835138749262,-0.050256943416503524,-1.4711475721353127,-9.20602961637229,3.500575210329412
8989393283790,-0.9924549447223234,0.10910089157304732,-0.03784360706005835,-1.309645628495424,-9.206148214071407,3.4954145611213345
8989394274190,-1.0013468653581483,0.12175529689082472,-0.031958433523984406,-1.0817594732439901,-9.32931493208093,3.438827482058782
8989395274190,-1.0051814074307743,0.09429248746838008,-0.025609076156173898,-0.7686636128557712,-9.46246276454637,3.4234758202224045
8989396269490,-1.0029757635847802,0.12369871254794913,-0.019518618648564835,-0.38422949788410354,-9.567889176107467,3.3903157332923315
8989397264690,-1.0047069114818739,0.13557023826117176,-0.012406142141861117,0.05172671454646206,-9.619789515638676,3.4221371053100724
8989398255090,-1.0002299418462424,0.11572990583198246,-0.007410694951790623,0.3886019783661017,-9.478191824409937,3.2622079774812804
8989399255090,-0.9917330500137802,0.1486387012801162,-0.004201607709842817,0.6353135679914451,-9.28792281298947,3.025626306485928
8989400250290,-0.9893774674862913,0.13511048078666554,-0.00655941173297208,0.8869792596409406,-9.230576298425909,2.8696851958349208
8989401245490,-0.979086522008206,0.12955487854743575,-0.005248769494007265,1.1099113128682225,-9.254545451919295,2.7609913724604884
8989402235890,-0.9686827663109517,0.17178009022754215,-0.011392427366224775,1.3992277549628773,-9.378748661940215,2.8166006116458044
8989403235890,-0.9648272860949227,0.15489476133777763,-0.019549340057097186,1.7410570766165634,-9.63094954955229,2.702602208581911
8989404231190,-0.9477984725305404,0.1823769595175308,-0.037858917020890545,2.1304453526646325,-9.902031063197645,2.6643602652279004
8989405226390,-0.9294049376938515,0.2024341066936186,-0.05107895342942739,2.509925306559899,-10.2683308648244,2.724544272632134
8989406216790,-0.9158294945390913,0.20428549673063884,-0.07770791646814451,2.92804686681577,-10.938187217086089,2.804097149330882
8989407216790,-0.8932577816309443,0.23769878941458938,-0.10728654006200918,3.2550141774600814,-11.745855233467417,2.9398019116131633
8989408211990,-0.8840378924504163,0.20436515343349115,-0.135898147329307,3.549284544422142,-12.473152905976782,3.0470629216405003
8989409207190,-0.8685237362349416,0.22902739607131534,-0.1647617531773428,3.7722168339575,-12.915715718737177,2.985269551739207
8989410197590,-0.8509230543079319,0.23269364438637735,-0.20519250826449154,3.8108582040100276,-13.09627478961855,2.852078630075149
8989411197590,-0.8365413024757757,0.2035314459993544,-0.2438292527463014,3.9148932252180626,-13.30564801647584,2.8290833474678023
8989412192890,-0.8237815503801652,0.23252542560613837,-0.28419816014961735,4.119000316588506,-13.532949050709377,2.8325201506750677
8989413188090,-0.802836293861623,0.21577536231572214,-0.32829136827726974,4.328061096716442,-13.685858514263456,2.870491098272453
8989414178490,-0.7900703240207367,0.19416638676019793,-0.3723924077707535,4.408316522474165,-13.709723840282427,2.87035248143689
8989415178490,-0.7777227484755884,0.20822606667286503,-0.4082192962332533,4.333014785374852,-13.556912601643674,2.7711179405420316
8989416173690,-0.7740649478248137,0.1609121958718091,-0.4433079172682707,4.109091994435704,-13.238339814252912,2.497909752167527
8989417168890,-0.7671446954600132,0.16476529870201317,-0.46513483769004904,3.5542387055976246,-12.75883134426955,2.0184848699704974
8989418159390,-0.7636327236891721,0.10887001758544763,-0.4888636039317439,2.524787553778269,-12.059759932111174,1.5251762084789664
8989419159390,-0.7533779734925387,0.08802838848375741,-0.5109943730143974,1.4656120257257526,-11.422165432026565,1.4140250770952005
8989420154590,-0.7416100753016582,0.06940861200733814,-0.5278449211209113,0.8067235976742211,-11.127079621965986,1.5521639722186176
8989421149790,-0.7335705518486187,0.015096433357374539,-0.5459307210836134,0.43616081485414865,-10.927430159785914,1.5804640817706979
8989422140190,-0.7150842027662995,0.021245650189435257,-0.5593711590363059,0.18944925475492957,-10.694146714449435,1.6470279413279776
8989423140190,-0.7032033189814901,-0.002765781781679362,-0.5756314463156509,0.12801905658916296,-10.460998383142726,1.718246298653583
8989424135390,-0.6893722975965191,-0.05231191023287696,-0.5982195024706634,0.25583349599168065,-10.280562493694045,1.7093580491837088
8989425130590,-0.6699793115750692,-0.03471345394125605,-0.6208696596002067,0.49263699957413637,-10.285695186194541,1.713932884051985
8989426121090,-0.6536099523839876,-0.07365083185899908,-0.6372453119719099,0.7016978387543206,-10.385041689008661,1.6701994515785497
8989427121090,-0.6310082024707931,-0.08077035370762564,-0.6558076150095015,0.830503074920953,-10.514086772456817,1.5851871781902585
8989428116290,-0.6099314849949169,-0.09517372270816761,-0.6703996741644372,0.9672348035031627,-10.694717875231833,1.5611852679373575
8989429111490,-0.5959238651894587,-0.12316074114850115,-0.6943472513796064,1.0960400397688759,-10.96064828815815,1.4809741996433832
8989430101890,-0.574013957402098,-0.10397235767043339,-0.7113481687319259,1.1762955836310978,-11.241422279851182,1.31512792281326
8989431101890,-0.5622933473387408,-0.14259872661336292,-0.735988418009747,1.3516689185739112,-11.483581444530252,1.2112311058049847
8989432097090,-0.544671150258441,-0.1299201584083705,-0.75138931143386,1.579555132976675,-11.678166389693622,1.068886779903514
8989433092290,-0.5357253213268744,-0.11970324368937844,-0.769540544858416,1.722231642341735,-11.826067360887784,0.8518508121477487
8989434082790,-0.5243512697836518,-0.14544146201620872,-0.7905788504409383,1.831220706521673,-11.996759549781515,0.6387832935638724
8989435082790,-0.5066752525415749,-0.10994767255743332,-0.8078321223091598,1.940209770701611,-12.134717241590755,0.4877987162944326
8989436077990,-0.49699295990144643,-0.10716380627714528,-0.8190099075746665,1.9927226501615614,-12.243867325797165,0.3605618672370792
8989437073190,-0.4809079919499568,-0.10688539075295106,-0.8343650010163339,2.0591070389298536,-12.344100436423972,0.21361341410778673
8989438063590,-0.47630106195381483,-0.07159779393446164,-0.8515793948401075,2.116573843356291,-12.306449341956238,0.024448630347645023
8989439063590,-0.4711628790903759,-0.07740633094394805,-0.8698279666701954,2.1304453526646325,-12.134856939614211,-0.11035800377112488
8989440058790,-0.4553433651943759,-0.02988825208161592,-0.8849861155875558,2.14431662586306,-11.978142821955556,-0.3092013701832052
8989441053990,-0.44869049329788435,-0.03284640064136707,-0.8983266666042611,2.2820390922562166,-11.911784527954813,-0.48860752076534725
8989442044490,-0.44460602741687305,-0.005968350101094651,-0.9125853783819242,2.4346238056695806,-11.797825311889252,-0.6157887498129883
8989443044490,-0.43948881433538833,0.03254083769007736,-0.9233804145908225,2.4673205131428366,-11.593512236501736,-0.7949171328196678
8989444039690,-0.438885293788176,0.022073751116148545,-0.9346204074748862,2.481191786341264,-11.336613757176242,-0.9129021445745749
8989445034890,-0.42958969715372464,0.07397718633577471,-0.9455881392319382,2.4722744380102424,-11.142189610100553,-1.0446999869015936
8989446025290,-0.4310584817792694,0.09059883556360744,-0.9597740817683623,2.504971381692494,-10.97160241322711,-1.0967972145726368
8989447025290,-0.4290392998244258,0.09428651001038059,-0.9710475576342564,2.581263620393759,-10.662177246527833,-1.2138408000122545
8989448020490,-0.4324473374854506,0.14107824403432417,-0.978748634080545,2.5673923471953315,-10.334831548725182,-1.3080822891318122
8989449015690,-0.4362016551766016,0.14765593491691859,-0.9878516833660881,2.453449239944409,-10.087758697171994,-1.3313323145183742
8989450006190,-0.43749657698252764,0.18469615930871086,-1.0010208980213844,2.4346238056695806,-9.892334947013499,-1.3833318981793894
8989451006190,-0.43533048183406964,0.19737112744258328,-1.005960054448021,2.4861459474176653,-9.7505277089338,-1.4118432232207563
8989452001390,-0.442725367151782,0.2054499262346367,-1.0122813384188645,2.448495078868008,-9.67908088720038,-1.4304382003510097
8989452996590,-0.45025321630348025,0.26365658941084463,-1.019641160571493,2.320680698517739,-9.583762409620926,-1.4065263661052039
8989453986990,-0.45960077531757104,0.2430091295593108,-1.0188744742777613,2.1780040710481816,-9.488433018065626,-1.4574507083200308
8989454986990,-0.46280960332734067,0.26772305355339515,-1.0222096480180185,2.0065941594699033,-9.440694362486695,-1.462082551944805
8989455982190,-0.4764200116682933,0.3043426937268753,-1.0192835874452668,1.8361747494935763,-9.412795408816526,-1.5041626362985643
8989456977390,-0.4930779297887907,0.27432392205690126,-1.0188091955174532,1.7509651625603702,-9.412732835817556,-1.5424521893215666
8989457967890,-0.5031148906415647,0.3342108318950946,-1.010842376455042,1.6558474896833573,-9.407703243207562,-1.5423089107427042
8989458967890,-0.5258671109944218,0.33089017152151484,-1.0080344640970251,1.5607296987018464,-9.39275416333923,-1.555946360809073
8989459963090,-0.5365247403660939,0.34080412304802504,-1.0040446591222403,1.4566946774938117,-9.40259725329948,-1.4848853744400572
8989460958290,-0.5560650433651242,0.36727297191901986,-0.997154291371144,1.3328434842990826,-9.459046246291258,-1.5271095793372549
8989461948690,-0.5699123740501619,0.35676577305978063,-0.9917878732640946,1.2714133746126086,-9.569104984603714,-1.452261422985944
8989462948690,-0.5885450103150786,0.39515261273224905,-0.9880814777494434,1.228808463091048,-9.701991610868214,-1.339047336046242
8989463943990,-0.6038981116814272,0.3855384117817587,-0.9847119002896482,1.1713415406591945,-9.801142390989556,-1.3154136694068974
8989464939190,-0.6235987473533269,0.39733556073851695,-0.9756624760226764,1.1762955836310978,-9.910257550832625,-1.3007448749443293
8989465929590,-0.6372115626530297,0.4329426529298603,-0.9708612610665694,1.1911577126458888,-10.053105864843218,-1.2260376168332168
8989466929590,-0.6605234425961333,0.4054707370673544,-0.9737367192767264,1.143598876157842,-10.162182462260734,-1.1787880677275733
8989467924790,-0.6837247777713068,0.42477275897245276,-0.9599830586348573,1.1049572698963188,-10.286144838833676,-1.1404296808826644
8989468919990,-0.7046496987916997,0.4503128757701573,-0.9658927511885471,1.048481203280829,-10.190878747991354,-0.9757706324829535
8989469910390,-0.7141870474094506,0.40249760257863837,-0.969325571851519,1.0910859966978916,-10.304981299956662,-0.7818959949882986
8989470910390,-0.7076882518580363,0.44066562207109045,-0.9641924705433734,1.1475621814178796,-11.103523523164556,-0.5797951880150903
8989471905690,-0.7121357091005237,0.41972930090707233,-0.9594279132614211,0.8582457393232247,-11.578443721128384,-0.2685504971236992
8989472900890,-0.7136119789715247,0.43313193201124217,-0.9575755633232698,0.5738833993518029,-11.292560101607618,-0.04724334796463229
8989473891290,-0.7349567971685133,0.4404515828351425,-0.9536958773633847,0.7631280073939628,-11.135974768095764,-0.31036593011290114
8989474891290,-0.7528074778710776,0.4374577243865299,-0.9448782884983764,1.0247017260340971,-11.155013500111156,-0.3915325010493254
8989475886490,-0.7647993313213479,0.4677295476658582,-0.9509088300219363,0.9206667048260625,-11.174776077243008,-0.3066908591447853
8989476881690,-0.7791845407820603,0.4422952061298558,-0.9422546592470946,0.8394203641006449,-11.359214526042475,-0.2171063561538087
8989477872190,-0.7564782213162748,0.42614721500725694,-0.9364119928125919,0.8394203641006449,-11.459398887808506,0.06056574471757083
8989478872190,-0.753022806761241,0.4526294545802846,-0.9233189287885627,0.682872404479492,-11.629895135649432,0.32953792457463765
8989479867390,-0.7563801994230152,0.41438178169485196,-0.9156642479124312,0.3886019783661017,-11.862781315062152,0.6272188430487181
8989480862590,-0.7523014999456918,0.43873853961313175,-0.9038423039890731,0.15576172099143454,-11.910223112666344,0.920052853110627
8989481852990,-0.747326121777029,0.41709637043566805,-0.8903287068037956,0.10423962353253675,-11.933991668784492,1.302276358975896
8989482852990,-0.7419025230408792,0.37239140166014034,-0.8758441925529912,-0.0007861944396126558,-11.986486123615613,1.4767224062098
8989483848190,-0.7475418794851879,0.3788328501166385,-0.8584680569472007,-0.3317165888980288,-11.62518266356676,1.675511300070769
8989484843390,-0.7392701437154496,0.31635197971251944,-0.8490066579301389,-0.5358233850072286,-11.263971389542592,1.8790398772089056
8989485833890,-0.7122080926524665,0.33545821332923553,-0.830766825070397,-0.49817260503594496,-11.771865244532641,2.0577912889787187
8989486833890,-0.6987373576019216,0.2928627570632286,-0.8175474281059474,-0.7022794012442257,-12.466063386455613,2.302720406386395
8989487829090,-0.6719027397069521,0.2688449363295931,-0.795585350157802,-0.9727704090640521,-12.365680391716898,2.3691987730948507
8989488824290,-0.6654478489918864,0.28840722805436353,-0.7791609966324146,-0.7924430311493352,-11.971026491604592,2.128958719813758
8989489814690,-0.6700482326312531,0.2558843137883583,-0.7634334006702399,-0.49321856206404163,-11.734175587726014,1.8785529641022771
8989490814690,-0.6709554131889212,0.24417299451892943,-0.752092502377357,-0.549694717257905,-11.715287467514859,1.8313736822788689
8989491809890,-0.6760750093164546,0.2578273589683065,-0.7248822384274591,-0.6121157121877864,-11.909659227831732,1.8037098738923698
8989492805090,-0.6486943882173328,0.19896821327401487,-0.702029713082255,-0.5457314710501163,-11.986085947280307,1.9020412882071114
8989493795590,-0.6347224631417641,0.2089375566778925,-0.6774127191625717,-0.5021358512437336,-11.991077704971232,2.043809465724346
8989494795590,-0.6452099328385268,0.18443694338623629,-0.6584756646568509,-0.7587555269119646,-11.914511287607462,2.0206136288950063
8989495790790,-0.6533681201406041,0.18846503940225906,-0.6334545157994422,-1.0242924916608067,-11.58598845399947,1.9927334283768794
8989496785990,-0.6414007797006404,0.20095596308289754,-0.6104452968444379,-0.8588273018131297,-11.89063140970546,2.0493454444784818
8989497776390,-0.6272949991590792,0.16117738240541118,-0.58554000889639,-0.7686636128557712,-12.469982054253151,2.109758737400658
8989498776390,-0.6066452076899238,0.17869432641855593,-0.5473413919853543,-1.0817594732439901,-12.38940674751315,2.2659142779523527
8989499771690,-0.6009529305263358,0.14131015085326298,-0.51963348776675,-1.1194101646369006,-12.108664042362932,1.7944202895125392
8989500766890,-0.6020523283103919,0.15458037626787313,-0.49344197933791356,-0.739930151689385,-11.781607199025002,1.42578199290558
8989501757290,-0.6137620535986874,0.19784213765700093,-0.46864469254205426,-0.5784281785233722,-11.558542063400045,1.4405225364302476
8989502757290,-0.6147273309350832,0.16146000039258335,-0.43664346612395083,-0.5695108892445992,-11.53871058320048,1.1381404610235961
8989503752490,-0.5987295320937079,0.17791979746728503,-0.4086008467174521,-0.5219520232304279,-11.472286078259437,0.8032400477967068
8989504747690,-0.5894303346615362,0.17797656352223007,-0.37851623392719275,-0.4407056530779669,-11.2918150460098,0.7894949470018141
8989505738090,-0.5830284920960849,0.17501704145141428,-0.34493006583896685,-0.5308693125092009,-11.221321989072651,0.8832626732342956
8989506738090,-0.5838718741003457,0.19027565262036722,-0.3158399644729575,-0.7260588194387086,-11.253912204356673,1.067708056399804
8989507733390,-0.5738488755601423,0.1775669400654114,-0.2891066707968935,-0.716150733395821,-11.429490431588093,1.1857318473916938
8989508728590,-0.5606049343307796,0.19850768681100062,-0.25374780258935553,-0.5596028032017116,-11.496064820771139,1.0672465151343713
8989509718990,-0.565925076183793,0.18046726505273014,-0.22775635011734907,-0.4456596960498702,-11.221384562093304,0.9727709067747734
8989510718990,-0.570351106320768,0.1685161874158933,-0.19294329054097778,-0.38422949788410354,-10.940714616324694,0.5907650280775171
8989511714190,-0.5886107111649518,0.20514645053586777,-0.1657870382204581,-0.26533234766127783,-10.79300478371789,0.3080375776382845
8989512709390,-0.6019978358023779,0.17657579560285208,-0.13381981912620078,-0.19399406345262346,-10.784130010319318,0.1336011872718446
8989513699790,-0.6088930067140921,0.1833122697671748,-0.10062854082406315,-0.16526058375809866,-10.7553859218714,0.00159875016405428
8989514699790,-0.60697400709058,0.19767086494194802,-0.0690436670432391,-0.0671704355772827,-10.603692447375225,-0.09690466315185156
8989515695090,-0.6102803003057475,0.18102556426988325,-0.047440395725967546,0.03785538239486673,-10.54227083243008,-0.15314586903175292
8989516690290,-0.6142151063979411,0.217467670343793,-0.017694694619507137,0.13693634576885494,-10.617729235405335,-0.08342541290729666
8989517680690,-0.6247230247101839,0.18428560224409657,0.007833271305762998,0.25583349599168065,-10.684275976030264,-0.08759884368217338
8989518680690,-0.6286756061700174,0.2132422110365244,0.0315055001727621,0.32221773712935065,-10.708131115753252,-0.051273190272245375
8989519675890,-0.633073774014687,0.21312263431845546,0.05648684456509742,0.3747306461154254,-10.708169678200486,-0.11143321837532977
8989520671090,-0.6351580903532102,0.18184553676323428,0.07196418638654138,0.49759104254603964,-10.665606861324616,-0.19628171730454075
8989521661590,-0.6445978718135769,0.22850971749991178,0.09175879500498973,0.6640470292569124,-10.684575744470834,-0.26745974718606436
8989522661590,-0.6556937822867531,0.21245088681646013,0.10247414760994823,0.8205949888780654,-10.793802226031088,-0.3150655028103625
8989523656790,-0.6576044906720097,0.2014488005498049,0.12235493834458679,0.9058045758112715,-11.003161628576795,-0.2444607943138457
8989524651990,-0.659915429890359,0.23387282946878113,0.12935815115201718,0.9246300100861001,-11.265043862160706,-0.17479169874496897
8989525642390,-0.6520773585106044,0.20059574682952847,0.13763947820122355,0.9583174552712218,-11.449566711694013,-0.04794590469012185
8989526642390,-0.6551957864941175,0.21035338351620203,0.14260885173234716,1.0147936399912096,-11.61625197573332,0.0700179975644299
8989527637590,-0.6542162703458698,0.1994462543172993,0.14303348527182982,1.0772146054940472,-11.839481547331538,0.11601906480552902
8989528632790,-0.6614027629259006,0.1892862132891307,0.149510932628612,1.1673783535036548,-12.082569520267759,0.21022545180939
8989529623290,-0.6615006827833672,0.20104785445803436,0.15272804396012477,1.25258794033778,-12.267130204685992,0.2995670436113122
8989530623290,-0.6567975204003293,0.17059344673408228,0.15074968837720162,1.30510081979773,-12.3812400325774,0.35651584255862717
8989531618490,-0.6509965019887842,0.17936365262094323,0.14727833143541755,1.3566229615458147,-12.462615581744418,0.4597894157221438
8989532613690,-0.6475076288251237,0.16685289574131495,0.14141078891149628,1.437869361323481,-12.633286452127164,0.5727887244314193
8989533604090,-0.6377842985272827,0.13379340659912314,0.13136910976875774,1.5557756556308622,-12.890282647286659,0.6955063064057939
8989534604090,-0.6249002138711511,0.16209918482826802,0.1256249580824475,1.6845808918965754,-13.094713374373518,0.8084057497766042
8989535599390,-0.6114038940340288,0.130418685211785,0.11307163829476082,1.7697905968351986,-13.213806956510803,0.887956783962054
8989536594590,-0.5935771871792909,0.12325118014440552,0.10644344423028128,1.8500461407965014,-13.32297835942666,0.9251700940750348
8989537584990,-0.5791033164061052,0.13307003021098562,0.0888998142144427,1.9976768112379626,-13.422278805473194,0.8923609334566944
8989538584990,-0.5588053948701224,0.10815290036190371,0.0726074495134385,2.164132797849754,-13.536473252601027,0.8398113450067695
8989539580190,-0.5470625581296699,0.13214466016787035,0.05429040971661327,2.296901339375505,-13.631795368230298,0.7784632322075934
8989540575390,-0.5184974954644721,0.09605721149332598,0.03613995062973553,2.424715719725774,-13.713226942010735,0.7634286514360548
8989541565790,-0.5009876740933494,0.11439561658898746,0.01688836128216415,2.538658826877615,-13.822423083127214,0.7730135413389079
8989542565790,-0.47447188065117174,0.11513371627541887,0.002633507217768987,2.6387306609301104,-13.893914797113247,0.8250065794111486
8989543561090,-0.4567048588024931,0.08275247145307546,-0.02210837295701277,2.737811520962663,-13.964414402327465,0.838588007460695
8989544556290,-0.4262293916271235,0.11071587833566003,-0.045223995745000384,2.7903244004226133,-14.05471783924825,0.8384298362127653
8989545546690,-0.40088119437334546,0.09593966957503687,-0.06309401649843721,2.8567087892899865,-14.093452210035514,0.8333731547270193
8989546546690,-0.3807062512197543,0.07218783652633574,-0.08627893793060747,2.9944312556831427,-14.102480505574057,0.7957351314939521
8989547541890,-0.3531262566080382,0.09790364578947454,-0.10902451857298574,3.074686681440867,-14.097579696937405,0.76705827776825
8989548537090,-0.33221097467650795,0.06837603545138929,-0.13049445985555466,3.1083743628349843,-14.078757787740821,0.6872432414869254
8989549527490,-0.309069560510458,0.07694556860138968,-0.15422135897647726,3.179712676569763,-14.074842758048927,0.639864008079872
8989550527490,-0.2884957564272438,0.06245713344843298,-0.17596427780041918,3.2411429042616544,-14.078855285288983,0.5501381512729143
8989551522790,-0.2676549751476677,0.05460870038351456,-0.19766284064756914,3.2411429042616544,-14.083815028973978,0.4979300878491194
8989552517990,-0.25076601922489206,0.07609725828058272,-0.21977689771797027,3.259968102327487,-14.069941949313083,0.4368467540634392
8989553508390,-0.22811106606409517,0.03827838725387937,-0.2384227928439496,3.2837476977777977,-13.99358144097827,0.35709817759760387
8989554508390,-0.20972839910236357,0.05375964289894576,-0.2628408087990185,3.2411429042616544,-13.908244077668664,0.3611773140733705
8989555503590,-0.18420928293030012,0.05814834503079187,-0.27957713789705285,3.183675863725303,-13.841742447768107,0.21062022706550992
8989556498790,-0.16819853108867017,0.027009845956358962,-0.3012938567990673,3.1698045905268755,-13.756427130696032,0.07380616526277621
8989557489290,-0.15354687816529036,0.05890387764174439,-0.32295378151697174,3.183675863725303,-13.589793525766577,-0.03933552558061048
8989558489290,-0.14729874432511328,0.04421419545884393,-0.34477940695431064,3.236188743185253,-13.465841335455472,-0.22250526679876725
8989559484490,-0.14214104712927034,0.046651727493832576,-0.35858043999742445,3.302572895843631,-13.371656847218757,-0.47171538973739385
8989560479690,-0.14021729293295293,0.06318116661031191,-0.3810585386296072,3.27383961173491,-13.223839549347906,-0.6557300157402909
8989561470090,-0.13472401465016268,0.04809245926779837,-0.39811666611353846,3.150979156252047,-13.100749956146048,-0.6741541740081268
8989562470090,-0.1355390827772207,0.07545794332693039,-0.40671084295636484,3.0083025287824894,-13.066920250430208,-0.7310439574075293
8989563465290,-0.14200051389399554,0.05315124842276804,-0.42541236778097286,2.8517546282135853,-13.114417126734772,-0.773212384921149
8989564460490,-0.13641591136476885,0.07671367877265843,-0.4299116033755141,2.676381293270772,-13.109328599002094,-0.8015162775334488
8989565450990,-0.14454755184475127,0.0920900887084455,-0.44132515793172106,2.5010079583279583,-13.04770107521399,-0.9046270753817737
8989566450990,-0.15767218174302955,0.06838176958397109,-0.45148369092000756,2.3345519717161665,-12.909701183016184,-1.1495180430706506
8989567446190,-0.17226630490451308,0.11412798335841766,-0.44410100663623714,2.168095985005294,-12.700282117807241,-1.4229087747058813
8989568441390,-0.18470947065259807,0.11289901101628667,-0.4406833256809552,1.9501178566454176,-12.495784961299172,-1.6391003573989198
8989569431790,-0.20385597192858762,0.09331900279457082,-0.44577638998922275,1.7460111195884667,-12.357757420664127,-1.8465075110735933
8989570431790,-0.21641884917555848,0.1478279661461741,-0.43808937193102143,1.5706377846456532,-12.234630210937373,-1.9594124796899863
8989571426990,-0.23029371168019344,0.1256334689304029,-0.4264034727964655,1.3754482777161454,-12.077762571117063,-2.0486186468195062
8989572422190,-0.24452209475371386,0.16660555189979492,-0.4169214188526548,1.2000750608778297,-11.93975613071963,-2.0905920371427413
8989573412690,-0.24392871077393277,0.15181680074984005,-0.41677295211403964,1.0247017260340971,-11.782903042751524,-2.118758829239035
8989574412690,-0.2565862698630211,0.16619628112663148,-0.40308526377593235,0.8255490319490496,-11.644879139980299,-2.132133237818009
8989575407890,-0.26238492925519474,0.21161739978975602,-0.3874508594055595,0.7116059246981272,-11.539651361391812,-2.0895181297370233
8989576403090,-0.2710022409746121,0.18090154720851576,-0.3789759051004556,0.6214422357407688,-11.364014199180339,-2.004520244643293
8989577393490,-0.2700357201307745,0.21768304999295474,-0.3688163796610959,0.4886737533663477,-11.222070682611804,-1.882061547764822
8989578393490,-0.2736450126068777,0.2323583436333771,-0.3459952356020848,0.35590527089284574,-11.193207996451159,-1.8621423665563979
8989579388690,-0.26879559772583317,0.21060280308407392,-0.3346149829514653,0.30834640497775534,-11.140600546340771,-1.8009570659150564
8989580383890,-0.2703363316636008,0.24989542630455663,-0.3238032720573968,0.3172636941574473,-11.092994312642443,-1.6354514914741705
8989581374390,-0.26494848096082824,0.24325541825213753,-0.3041662471830807,0.34104311245101127,-11.097971518459552,-1.4897145533566083
8989582374390,-0.25717604718722376,0.2354198499358433,-0.2967152901146206,0.32717178020033494,-10.993809553959293,-1.291620522653426
8989583369590,-0.24257554578766527,0.24551572847178876,-0.2727267385145486,0.13693634576885494,-10.869679103307519,-0.993768795863628
8989584364790,-0.229819993403024,0.21932885948266895,-0.2578878602386842,-0.0721244823142623,-10.90721887588029,-0.7531641659165074
8989585355190,-0.2164112436620742,0.25690126006433367,-0.23960572015623938,-0.09986715038252925,-10.903230140838394,-0.5551403970476718
8989586355190,-0.2135904399854664,0.2274552230345065,-0.21823392450096296,0.027947281588916864,-10.808099382293687,-0.3749906578558536
8989587350390,-0.20375508241365678,0.2418137261026751,-0.21490429310262188,0.17954116871204195,-10.817137864202405,-0.43727330183735974
8989588345590,-0.20331960803779722,0.2665486249679208,-0.20118647774715764,0.33212582317223827,-10.983893704651509,-0.6070619767262853
8989589336090,-0.2020451063554359,0.22086885638259057,-0.18920521484421868,0.45994029210088044,-11.107978316951627,-0.7117677216010402
8989590336090,-0.18814908586338186,0.2519490094759138,-0.1756111758157425,0.42228948260347227,-11.169450354211289,-0.63592533698443
8989591331290,-0.18205898499180545,0.27666402012509156,-0.1617854632064603,0.25087945292069636,-11.321089040821565,-0.33835025022700316
8989592326490,-0.16818485796495375,0.24527296578588342,-0.1585287133050059,0.16566980703432221,-11.610668684550477,-0.0883042156818375
8989593316890,-0.15919283328269096,0.27493741329699617,-0.1348915605356285,0.2033205870056059,-11.915217780736365,0.04236726396356452
8989594316890,-0.14956865929335725,0.25304370903467993,-0.12415431627671793,0.2885302034649365,-12.019432132051268,0.12193171037274593
8989595312190,-0.14621523749923343,0.28955633572690803,-0.11212192402768623,0.303392361906771,-11.948024818851584,0.1131097736031464
8989596307390,-0.13642935977988876,0.2829000326978692,-0.09224760570088758,0.2320540481719922,-11.777361224494133,-0.04718272675015259
8989597297790,-0.12009857254888043,0.28075862568961313,-0.07725607116057195,0.260787538963584,-11.629585180903662,-0.11702427805368201
8989598297790,-0.10517130117874747,0.3228123015435894,-0.05443117954631313,0.3459971554229146,-11.58699471556887,0.04245567038987022
8989599292990,-0.09314393234616057,0.3075641697778275,-0.046040046650139985,0.3509512279209424,-11.554264802369726,0.18431422713684387
8989600288190,-0.06822077130706405,0.32553106551065564,-0.024288204255282116,0.237008120769101,-11.520456196792377,0.4386342077301534
8989601278590,-0.0474242738708883,0.35199177003100973,0.005062392547070187,0.014075949338240565,-11.492518680783315,0.641889230001824
8989602278590,-0.013088621293349284,0.3116662452948058,0.02563564769459843,-0.16526058375809866,-11.448741620879598,0.7416727108611475
8989603273890,0.0025334603289613247,0.3286826056078745,0.04364557882829201,-0.23164482866084496,-11.397112673555812,0.8501633042616944
8989604269090,0.0311941104984204,0.332960830854613,0.06868043507190794,-0.2276815898841279,-11.283044318463595,0.8167714239843223
8989605259490,0.05215915665784261,0.3243951145179407,0.08700166123082641,-0.20390215682750173,-11.150143867855064,0.750863585295222
8989606259490,0.07068881854298231,0.34877536744743565,0.10856592144854157,-0.2276815898841279,-11.06878869123171,0.6189852763958782
8989607254690,0.09251452305809554,0.33216591227335596,0.13084479140947247,-0.20390215682750173,-11.044999762503231,0.5057000913894482
8989608249890,0.11168786574116596,0.3630656352563917,0.15132221497277565,-0.16526058375809866,-11.031141234843552,0.5105811138150396
8989609240390,0.14492242931666222,0.3353572447744435,0.17976389767238946,-0.20885620723047668,-11.00234308608012,0.6003032897972741
8989610240390,0.1736726503573781,0.3243566860704802,0.20318884949273744,-0.28911178061882303,-10.997324407436754,0.737336291007493
8989611235590,0.20099454103402786,0.3470592080909857,0.22822776113006876,-0.3416246896048977,-11.049858370615764,0.8220731358253596
8989612230790,0.21987657287510692,0.3077960116473041,0.24747570455463147,-0.3366706466329944,-11.0687086559636,0.836823473441773
8989613221190,0.24040078198123874,0.32539248730335724,0.27099515958617293,-0.27524044846722767,-11.01717356828348,0.7658623510916782
8989614221190,0.2577787905522211,0.3410015792454638,0.2932560976773789,-0.15634329824440196,-10.954768866486914,0.6573981796986832
8989615216390,0.2744409727978214,0.31952228943278566,0.31564322068633405,-0.081041767827959,-10.935977516196642,0.5627478270654684
8989616211590,0.29547019937933316,0.33812754763452196,0.33766234540930623,-0.019611576994182908,-10.988595152706042,0.468053197540258
8989617202090,0.31401429047680285,0.3153949494389167,0.3589058964263681,0.0844234367827802,-11.06405813955042,0.4441939252366015
8989618202090,0.33341977393323163,0.33819537631170216,0.3707954987249708,0.1745870962140142,-11.13157516111628,0.39672270388091113
8989619197290,0.34256610778883434,0.3267838607549194,0.38988658787392966,0.28456695715806696,-11.198114407399176,0.26451566516392183
8989620192490,0.3520882912615624,0.31492263114143465,0.3991867907732414,0.4173354396315689,-11.283517981714128,0.08497964218704641
8989621182890,0.36109428292615486,0.35055183004872287,0.4088118191064527,0.5312785467834104,-11.297488558749729,-0.13090843243837585
8989622182890,0.36518061619200815,0.3249003411739162,0.4228027727634597,0.6065801067259778,-11.30746334313676,-0.24035936769944927
8989623178090,0.377510723315588,0.33142163398593616,0.43723824794388455,0.6214422357407688,-11.397739131421917,-0.259177093347028
8989624173290,0.38461114483423287,0.35828426139920183,0.44718589540164755,0.6541389432140248,-11.520762513575061,-0.3489685374681292
8989625163790,0.3896942253823815,0.3290639856439906,0.44847700106776356,0.7205232139769002,-11.625955367701012,-0.4240184023199235
8989626163790,0.39214054977882895,0.35393089292218216,0.4596800823407928,0.8017695546032368,-11.6686671227756,-0.47145423807967346
8989627158990,0.38357646638343057,0.3457505926083339,0.47169595009284077,0.8681538253661123,-11.634990939308143,-0.5995672252389145
8989628154190,0.38524489628800396,0.3604931428707204,0.47869202842147085,0.8443744071716293,-11.559586887438433,-0.7265260461015857
8989629144590,0.37873162633742385,0.3693872163491789,0.48328957400956396,0.8017695546032368,-11.525830668653972,-0.811141177901152
8989630144590,0.3744162850316143,0.3511671418058982,0.4954749650121992,0.8106868438820097,-11.539724120695983,-0.8446558229324758
8989631139890,0.3660763796270088,0.38473126554798825,0.5040101599883244,0.8067235976742211,-11.559559238858636,-0.8820969514857678
8989632135090,0.36265751473210517,0.37365902020328795,0.5146103220972449,0.7353853429916912,-11.544627621308265,-0.9381229560183977
8989633125490,0.3495762393420573,0.36825811154219823,0.5252788663204612,0.6491849002421214,-11.50687197191222,-0.966527343258574
8989634125490,0.3447707795204513,0.40856559595465314,0.5358565648838011,0.6214422357407688,-11.421545522491732,-1.0186134385953338
8989635120690,0.3288694058840582,0.3796293743866337,0.5442406514233045,0.6263962788117532,-11.345171189758608,-1.0510557961534248
8989636115890,0.3129674857006506,0.4036389097747657,0.5633991080082134,0.5976628175462858,-11.27373091645403,-1.0982280680258287
8989637106290,0.3019171836314283,0.40689775336310313,0.5702307349335498,0.5689292972285697,-11.202291589205126,-1.1365356321946003
8989638106290,0.2936127050309093,0.40221822435314425,0.5835243323908134,0.5639752542566664,-11.150707752673453,-1.1177672527887677
8989639101590,0.283608155593571,0.42261119743222747,0.595739148369314,0.5550579650769744,-11.045557098979504,-1.0654556728517135
8989640096790,0.2653299551466566,0.3982053434082602,0.6020283149271807,0.5213704608396037,-10.997919578781728,-1.0417241435771414
8989641087190,0.2583794061555026,0.4347658525786158,0.6117088929807968,0.5074991285889274,-10.984022488677509,-0.9944125795372529
8989642087190,0.24363882657623684,0.41844919027830807,0.6260723329533655,0.5263245038115071,-10.93146378731948,-0.9096848477564784
8989643082390,0.22615332964413154,0.4104502095835372,0.6333490750523569,0.559021211284763,-10.874948801738284,-0.8525529779307869
8989644077590,0.21215586088405836,0.44278728725349936,0.640638683523621,0.5976628175462858,-10.827364395861556,-0.805287633614433
8989645067990,0.20215511025386934,0.4115533253922524,0.6531294052605856,0.5877547315033982,-10.822397376250457,-0.7540500145126602
8989646067990,0.18681498623499368,0.4074583506457356,0.6554072969984416,0.5689292972285697,-10.827343295623871,-0.6594695868013593
8989647063290,0.18108612526223503,0.42922525541459844,0.6657361874110248,0.6263962788117532,-10.846232143440698,-0.5886523327395082
8989648058490,0.16883333724922547,0.4022007645747562,0.6658409382999473,0.7542107182142709,-10.922703973678695,-0.5179897332198342
8989649048890,0.16320589247353226,0.4137157100110221,0.6718337558273477,0.8919333026128443,-11.031917576970578,-0.4473711634815484
8989650048890,0.15073908576372938,0.4024864608238592,0.6707920011470861,1.019747682963113,-11.103429663579409,-0.38655381158964175
8989651044090,0.14320341913873413,0.4041463729386928,0.6698227753926622,1.1624243104326704,-11.141227731823315,-0.3257276806516159
8989652039290,0.13228534771697728,0.4102174816644537,0.6662591326298466,1.3189722111006554,-11.198874014870809,-0.3161583488556997
8989653029690,0.12440372603127614,0.37178797162682997,0.6640143022963503,1.4517406344228274,-11.245592913215754,-0.3400335785467483
8989654029690,0.11794556109647689,0.40406745770827945,0.6539653697744088,1.6132425780627158,-11.317129738025283,-0.3551083560146203
8989655024990,0.10520292223990847,0.3824798158433189,0.6453256883721605,1.7559192056313544,-11.422378616851454,-0.3317721786095304
8989656020190,0.09914061781896355,0.3695327491709411,0.6334620549444157,1.8976049771854677,-11.564327735663065,-0.3173324625113487
8989657010590,0.09065917831162867,0.39641022881332727,0.6272721293920274,2.072978312128281,-11.731100310902042,-0.3088741465095511
8989658010590,0.08417879666986905,0.3660668543711117,0.611778225007013,2.225563025640726,-11.821478180698296,-0.3042534818450369
8989659005790,0.08041592271021208,0.3690325162814787,0.598635617591976,2.348423244815513,-11.874139981872487,-0.3094051185069036
8989660000990,0.07627492183608081,0.37153879856118793,0.5779628344135392,2.4058902854509454,-11.940641611773119,-0.33712829087298574
8989660991490,0.06756316885095222,0.35412173507141825,0.5601797845545401,2.448495078868008,-12.021018285496998,-0.4081811505340394
8989661991490,0.05366836195728665,0.376757419097111,0.5539776731344729,2.504971381692494,-12.068672540472182,-0.474299817918088
8989662986690,0.050818825311591855,0.34082333359994116,0.5272676352080268,2.666473207227884,-12.097557272640998,-0.5641940749022124
8989663981890,0.044727630021542925,0.36888529345734145,0.5090332850211542,2.8468004670381033,-12.026270521553903,-0.3614880999392696
8989664972290,0.058519997907667445,0.35615855825497866,0.4902090770630399,2.899313582707049,-12.06896212260755,-0.16362352971519023
8989665972290,0.05244798235821596,0.3391293537987837,0.46853096243222686,2.979569008563854,-12.349736114114732,-0.2772662233659365
8989666967490,0.059313546299475634,0.37306747540431123,0.4445250348885714,3.074686681440867,-12.41130564887919,-0.25874606880874945
8989667962690,0.0635573559946793,0.3610051048865517,0.4247309993661453,3.032081888023804,-12.259509802144244,-0.28711103653531483
8989668953190,0.07332362386797826,0.34617071265959654,0.4042737391093951,3.0182106148253767,-12.20692709015697,-0.11171797036342423
8989669953190,0.08670832422389363,0.373676123019663,0.3839680127135406,3.0845947674837544,-12.378579373621456,0.03282128736929474
8989670948390,0.09317645315369531,0.3457262125952626,0.3579109350297649,3.236188743185253,-12.47292298650465,0.05615431722159174
8989671943590,0.10392737351409709,0.3753929729244721,0.3334875461925278,3.4452495233131883,-12.42546467262571,0.3819186056171991
8989672933990,0.10904018493823414,0.3588607587287234,0.3055048283988144,3.55919263046503,-12.568385745983765,0.35798391235830934
8989673933990,0.11359272659134824,0.37113392138572365,0.28060574411583744,3.55919263046503,-12.777681629530658,0.15489024492987813
8989674929290,0.13300724742121284,0.39785757588586645,0.26203268937203755,3.469029118664418,-12.782575162241205,0.18259659562912212
8989675924490,0.1459720437017789,0.353975866614378,0.23521981474954895,3.345177689260693,-12.79637111670408,0.3669548768673708
8989676914890,0.16061983002552543,0.3842207199771884,0.2173127993584084,3.203492035711997,-12.962910862035926,0.6309840891859138
8989677914890,0.17277688060728044,0.3707666636102617,0.19497549666636257,3.0845947674837544,-13.114588111084291,0.7866463328854727
8989678910090,0.18744146367340184,0.3549092160408004,0.1752489881016006,2.9845231696402554,-13.114514624282933,0.8911995843607416
8989679905290,0.19665279864346405,0.37113286378066407,0.15839252244316246,2.8567087892899865,-12.938849813479202,1.0373208190653973
8989680895690,0.20777529462067734,0.3452789821184507,0.1357230738834536,2.6852986415027127,-12.872265456341838,1.0563455360321599
8989681895690,0.22612448994744022,0.3465588658579897,0.11911314546320166,2.519833392602787,-12.904877499304902,0.9866241817323793
8989682890990,0.2450591079845084,0.3296919294729669,0.09798643378416858,2.424715719725774,-12.876041515823475,1.0714967933084516
8989683886190,0.2583310668228591,0.30943207317155136,0.08224930570375041,2.320680698517739,-12.824384919944263,1.2036816283221032
8989684876590,0.2769558658816973,0.32101738976193545,0.059811556407445454,2.263213657981388,-12.800536328399152,1.3732025281056839
8989685876590,0.2975931897436107,0.28020829383125034,0.03926945890316426,2.268167819057789,-12.824346357518714,1.4204525114850486
8989686871790,0.3163318160570664,0.2867913700697822,0.014915258340886021,2.3008645265310452,-12.785685692165558,1.3731610277167794
8989687866990,0.33269892262445455,0.30014328092858017,-0.008381799375066445,2.4148076336828863,-12.671697153936437,1.288390099794948
8989688857390,0.3413789280967835,0.25103991813994064,-0.04011035753476576,2.5485669129205033,-12.55871644061695,1.1375959681594399
8989689857390,0.35375071806775893,0.275332878997978,-0.0682139751171809,2.6000890546685875,-12.548834788330346,1.1276800185755322
8989690852690,0.36138229476844663,0.26113630982100866,-0.08941314956292772,2.4772285991857244,-12.567591214093031,1.048059428685024
8989691847890,0.3805279950885291,0.22724206879205117,-0.1132912785389077,2.3395061327925677,-12.543683687598696,0.9872134940597281
8989692838290,0.3882442311788191,0.24893440194407296,-0.1441586011180496,2.348423244815513,-12.567496626880532,1.1467447839531086
8989693838290,0.39507392341339276,0.2144365647400261,-0.16448970837417137,2.3870648511761168,-12.572484746630122,1.2835952090152911
8989694833490,0.39736959572315256,0.22881909841575154,-0.18409774718350624,2.4058902854509454,-12.529845532487066,1.2836062702220867
8989695828690,0.3911683500874792,0.21026779559512204,-0.20227262360564502,2.3672486790903418,-12.373092852501978,1.161667537970381
8989696819190,0.3805942339804179,0.20239472432669953,-0.22274530135902718,2.315726537441338,-12.12606489330067,1.0723332718721585
8989697819190,0.37197415168639203,0.22378852563173213,-0.23436733163444468,2.239434298740073,-12.020864763335345,0.9454779025493665
8989698814390,0.3664596628413399,0.17677357935184684,-0.24935036365179244,2.1730501461807763,-11.997010569578059,0.8411890527033676
8989699809590,0.3564540961592203,0.19679651770759915,-0.2614793441070693,2.0690151249727413,-11.949321390227068,0.8600984294558788
8989700799990,0.35431883550428833,0.19721955796875684,-0.2688726368067457,1.8976049771854677,-11.878768670561637,0.8840515367083814
8989701799990,0.3428037660205072,0.16333213504122468,-0.2745884782190763,1.7509651625603702,-11.744750746744185,0.9976584802006432
8989702795190,0.3392490172018313,0.201200351083967,-0.27720559758501917,1.5518124684753225,-11.597799683858938,1.059150117435622
8989703790390,0.3301418596988922,0.1759044777564589,-0.2743384193923823,1.3278894412280984,-11.426031713043534,1.0645567581039506
8989704780890,0.3283813979213036,0.17537342390407273,-0.2676866819226763,1.1624243104326704,-11.183880770277952,1.079791444884542
8989705780890,0.3262433998977069,0.17459645094520326,-0.2616627908732559,1.0108304528356697,-10.917932676704543,1.0566133869741425
8989706776090,0.3204195761012878,0.15615184545968736,-0.253363862229852,0.8106868438820097,-10.703530075665654,1.080738413030087
8989707771290,0.3148500665528088,0.19219631457747016,-0.24180904425703617,0.5788374423237063,-10.503982476481553,1.0192034177481253
8989708761690,0.3184068202180669,0.15514166035307875,-0.22739218192244373,0.3886019783661017,-10.323312083653633,0.9920648387264126
8989709761690,0.31454328851295155,0.16861080108414156,-0.2131104432517691,0.2885302034649365,-10.185360940285774,1.043554101914518
8989710756990,0.3218656842829324,0.18303080313655973,-0.1963473048842896,0.15576172099143454,-10.052345529831033,1.0537176441014477
8989711752190,0.31623456327833743,0.13972410804206636,-0.178556968607201,-0.009703476188233043,-9.919306108896755,1.1151475786061196
8989712742590,0.31604584911024514,0.16619302694859378,-0.1606849060412257,-0.15138924784142704,-9.786284150199092,1.1105495408278236
8989713742590,0.3099739315753005,0.14908026491149584,-0.14359323072373265,-0.26037830468937445,-9.672131903465209,1.1255862227920803
8989714737790,0.31006428669415376,0.13408070067002986,-0.12725898556658205,-0.3178452566473525,-9.576865084973926,1.1021166854850455
8989715732990,0.30797591039468064,0.15428094274253573,-0.1075416809062107,-0.3455879358126864,-9.51038622892734,1.0638033123500883
8989716723390,0.31559156474465044,0.13320829237244902,-0.0851239145316974,-0.3743214118412159,-9.46771209026754,1.083583229056102
8989717723390,0.3142760779346585,0.1614548497325186,-0.07087492592830552,-0.38918354085600687,-9.411161234223957,1.0501668467840888
8989718718690,0.3166087772510815,0.13817719607928614,-0.054478459143128,-0.37927545481311925,-9.420095670264084,1.078708606314783
8989719713890,0.31849384246346846,0.13817915245809764,-0.032777883986820314,-0.3654041226615239,-9.430025343840013,1.0688296756640483
8989720704290,0.3217121233799558,0.17067252192294458,-0.01889037235953241,-0.38422949788410354,-9.433978936100015,1.0363494355969463
8989721704290,0.3184788559168481,0.13172559837968284,0.002184470750848104,-0.3654041226615239,-9.44391224763903,1.0215382944097373
8989722699490,0.31425577923170656,0.15259812344120632,0.014761118233713656,-0.3218085028551412,-9.472710396300576,0.9741699731124855
8989723694690,0.3178389228457804,0.17993673064125365,0.031623707783497296,-0.3267625458270445,-9.553052145561994,0.941600493502144
8989724685090,0.31498974465906715,0.14403558987463516,0.04531534559076916,-0.3128912136754492,-9.614562017706582,0.8755314806964243
8989725685090,0.3177207376953862,0.18300498329242842,0.0669021296837154,-0.2702864053962434,-9.672124627528339,0.8842821053457491
8989726680390,0.3183090545355739,0.16603476582122156,0.07657150133961335,-0.2276815898841279,-9.752502247268291,0.9176364986717007
8989727675590,0.31620031442298047,0.1776353315502071,0.08769834973058012,-0.1612973449813816,-9.819010425448681,0.9076297456222372
8989728665990,0.31457257695200536,0.18005832012780237,0.10415647364787053,-0.08599581823093391,-9.833944007397294,0.9173562687168018
8989729665990,0.3117657232014107,0.16209656060413075,0.11395503729324055,0.04677267157455871,-9.83900124849335,0.9407973498015938
8989730661190,0.3112323436080128,0.20226151997339142,0.12502051070886852,0.16566980703432221,-9.857935207067001,0.9307570984109979
8989731656390,0.31004426374761784,0.17803195800519206,0.1342695269805895,0.24592540994879297,-9.881800533216063,0.888264626538882
8989732646890,0.3201081331941411,0.1827186171788051,0.14179863661329117,0.32717178020033494,-9.90963400335646,0.9117602803888297
8989733646890,0.318909747720553,0.20733173377216685,0.1558970577830713,0.38364793539419834,-9.98109464929305,0.860394787440255
8989734642090,0.324757669683428,0.1827158978967947,0.16261236869907097,0.43616081485414865,-10.071398086114641,0.7843936152069755
8989735637290,0.3336291982306929,0.21461628698123258,0.16669173246355948,0.4886737533663477,-10.147814619279771,0.7507589013720348
8989736627690,0.33790597313301673,0.21644138565134724,0.17409371119083866,0.5550579650769744,-10.16175027180954,0.7033707092380621
8989737627690,0.3493343629554657,0.21361147278329812,0.18043822886713617,0.6164881927688655,-10.157827966092354,0.6520660309427982
8989738622890,0.3505327298993268,0.2421622609370095,0.1831382656134672,0.6303595250195418,-10.161805568925772,0.5525598451231274
8989739618090,0.36304676466844865,0.22015845835636072,0.18922344246947456,0.6541389432140248,-10.147936127357987,0.5101838359298265
8989740608490,0.3776110427594084,0.2681809003001712,0.19753551276585374,0.7116059246981272,-10.16682497517474,0.4962933219282989
8989741608490,0.3848551342048755,0.2494521286946998,0.20378469972434574,0.7393485891994799,-10.16188560419934,0.47754282435324513
8989742603790,0.40156886543498094,0.24987760738915837,0.20724925059602273,0.7591647611861742,-10.185706547121288,0.46764261503995597
8989743598990,0.4099617110412087,0.29194175880416023,0.20901532383972835,0.7968155116313335,-10.252193625082985,0.4251737815755106
8989744589390,0.41820335011795273,0.26993624882198597,0.21812495232248297,0.8017695546032368,-10.272035291488557,0.3591553878047168
8989745589390,0.42101929290520634,0.29170386442235313,0.22290684113544376,0.7393485891994799,-10.262070911866024,0.21249435489921992
8989746584590,0.4229570552672379,0.31407796469742216,0.23196154688342868,0.6690010722288157,-10.209446727086563,0.13286161119274847
8989747579790,0.41962248402521085,0.28549117184137046,0.23729795378072233,0.6214422357407688,-10.171718507854385,0.06204693921205927
8989748570290,0.42435344205431524,0.3200146241110716,0.24554845390030625,0.55010392200599,-10.200432255772872,-0.0038681923027018145
8989749570290,0.42268406358955823,0.3048373642262103,0.24946535785314883,0.4738116243515567,-10.23806952588573,0.033638089366175794
8989750565490,0.41869515608401475,0.31843965757797627,0.2623682105247146,0.39851006440898934,-10.328279103264732,0.05238093809653373
8989751560690,0.40814751925292514,0.3217042291202308,0.2678181634765576,0.312309651185544,-10.432368526855067,0.028773260716602286
8989752551090,0.39815922458336706,0.2957632190104591,0.27469872633782816,0.237008120769101,-10.452151258302269,0.006210823048503317
8989753551090,0.38830753363307013,0.3276772152364077,0.28812069810543117,0.14684443181174256,-10.465971950996746,-0.11088203664368206
8989754546290,0.3683812528654574,0.2971149227370345,0.2985135926107364,0.05172671454646206,-10.423250009584358,-0.22890155964375897
8989755541490,0.3458750335854538,0.29150627069376395,0.3072022424764624,-0.0007861944396126558,-10.35179227412606,-0.3085433024361088
8989756531990,0.3255724404216309,0.3144490170733328,0.3178350373624237,-0.019611576994182908,-10.35177844985246,-0.43656243064035144
8989757531990,0.30736425589072713,0.26646761140416464,0.32747674025197826,-0.048345053022712414,-10.365644253446316,-0.5586697765652927
8989758527190,0.27787496179662285,0.2836791548235588,0.3378478595363875,-0.024565619966086263,-10.356734555475247,-0.6956077918416864
8989759522390,0.2588913017094375,0.2798079642653943,0.34741576664546053,0.06559804679713836,-10.370687670263317,-0.8090238976957733
8989760512790,0.23158968234434063,0.26560164914873113,0.35016358005349796,0.18449521178302625,-10.42830630478522,-0.9363109906622303
8989761512790,0.21202270248728053,0.28078549234788064,0.3584828158598359,0.3360890693800269,-10.484957568712696,-1.0882692789912265
8989762508090,0.1801778287786938,0.2583174128942573,0.36256856395220133,0.4648943351718648,-10.532664937900591,-1.2529908018378455
8989763503290,0.16139472270237942,0.28619239770662946,0.3638199326910471,0.5639752542566664,-10.604155924315101,-1.3664718924048331
8989764493690,0.13309909312036086,0.27678331845273885,0.3605808717332513,0.6927805494755477,-10.660790453638628,-1.461268480125424
8989765493690,0.10768530467410684,0.2638350791079088,0.3611984381994033,0.830503074920953,-10.756117153187395,-1.6122564550809995
8989766488890,0.0876737745686716,0.30367995663686154,0.3509917896777062,0.972188846574147,-10.851445817115415,-1.6834672495493113
8989767484090,0.054950810018349394,0.28187578988464457,0.34868578955776003,1.0910859966978916,-10.856492871900814,-1.7496385005850206
8989768474490,0.040647654877341705,0.29121822964012534,0.3447784023316518,1.1673783535036548,-10.83274250563041,-1.7782926043910756
8989769474490,0.017206684819726915,0.31555715960156533,0.3308381695793493,1.2575419834087642,-10.82784897300659,-1.7784196928774432
8989770469790,-0.0036913253801243574,0.2992659152907815,0.32113046228308334,1.3754482777161454,-10.82297581289391,-1.7835121282118844
8989771464990,-0.025994587643842618,0.3264592194170086,0.3115976240951539,1.4517406344228274,-10.832951324864858,-1.741278562258788
8989772455390,-0.0512903953458985,0.3102656214245366,0.3098087644780872,1.4893913848679867,-10.942090495281343,-1.7788610625500272
8989773455390,-0.07523695187236881,0.3333580027282115,0.29498331691643653,1.5082168192418963,-11.079981976029478,-1.8499312254257343
8989774450590,-0.09711597729668633,0.32734266173672993,0.28572498796368656,1.4992995890153724,-11.112708978914496,-1.8597975121279704
8989775445790,-0.13249842731438835,0.296821157449054,0.27508681004092467,1.4517406344228274,-11.084900246866386,-1.7927247301107865
8989776436190,-0.16057578071010928,0.32666469161916284,0.2657152382758528,1.361577004517718,-11.103680683289225,-1.7226770695617795
8989777436190,-0.18805031533839942,0.2924880528136075,0.2540240288474028,1.205029103948814,-11.245411742517739,-1.675298052485788
8989778431490,-0.21425143345601586,0.2654356550705821,0.2448868040020806,0.9583174552712218,-11.430720064309192,-1.6603310192671938
8989779426690,-0.23683802126608194,0.27903262826707825,0.2473074326979886,0.7304312999207069,-11.493044730776363,-1.594061663098476
8989780417090,-0.25681567957765095,0.22675960299737208,0.2406142327829447,0.6729643184366044,-11.416623613648373,-1.382139416043132
8989781417090,-0.2815795656407709,0.2229857893237034,0.23577152547274033,0.8106868438820097,-11.392918358145634,-1.2168433034250443
8989782412290,-0.3103886477963794,0.2090437609007239,0.21368264290861083,1.143598876157842,-11.369357384443292,-1.2409470098054458
8989783407490,-0.3320177911032838,0.20246123391899357,0.19325283770265067,1.618196739238198,-11.260593433920636,-1.415881268017586
8989784397990,-0.3573243585689033,0.23498681849240421,0.17272413509766932,1.9263384975031836,-11.122942058894079,-1.6476752080493262
8989785397990,-0.37296744741179244,0.20907829159341884,0.1539009183811314,1.9213843364267824,-11.075325638803895,-1.8554545132482412
8989786393190,-0.37612851554253246,0.2540937976492234,0.12686451986792155,1.7796986828780863,-11.175406900710323,-1.9065568302243734
8989787388390,-0.37084654397773464,0.2559902503963659,0.09712466568710064,1.7410570766165634,-11.341029988581127,-1.5156155510030977
8989788378790,-0.36887455551443127,0.2397625820108577,0.061123607943710814,1.8886876289535264,-11.50778219112297,-0.9732609204978873
8989789378790,-0.3554241364108991,0.2951370698362643,0.03122069009903568,2.1730501461807763,-11.66471531435225,-0.6103621159874314
8989790373990,-0.3582058569683383,0.2879458005979335,-0.004453266764451575,2.4623663520664354,-11.698652703803827,-0.42662466049839676
8989791369190,-0.3678509353001428,0.30105280567936005,-0.03557645005562507,2.504971381692494,-11.474508875974045,-0.5358164049003938
8989792359690,-0.378558329882254,0.3431930800581812,-0.05909599677510752,2.3345519717161665,-11.213506701786516,-0.6525439198958234
8989793359690,-0.38062169092308584,0.3208971443198283,-0.08257888374725901,2.1304453526646325,-11.080438904724735,-0.7466835038550754
8989794354890,-0.38761435755009865,0.33971767097138345,-0.1060176564179063,1.9451639317780118,-11.136842787004678,-0.5671990077147193
8989795350090,-0.3839335541342942,0.30207980030181125,-0.12297273657928093,1.7935699560765135,-11.265681961467394,-0.23712805677061194
8989796340490,-0.39445533982989434,0.31635622714030004,-0.13802504960257617,1.6082885350908125,-11.160401796141773,-0.0013539618450238294
8989797340490,-0.40115274567841663,0.3005240114607702,-0.14890262774782714,1.3477056133138738,-10.941986449434431,0.34297929622252415
8989798335690,-0.42172765977077975,0.2614000488833283,-0.15374789781799486,1.0147936399912096,-10.7850176741896,0.45293872988392836
8989799330890,-0.42962483055045375,0.2696504743210457,-0.16834743276519615,0.706651881726224,-10.703453678398468,0.6090877616186243
8989800321390,-0.43614375157661134,0.22295265289100097,-0.17178193610463294,0.4411148578260519,-10.684412035960614,0.9680227356398747
8989801321390,-0.43387600746306076,0.1722295517766389,-0.17790580000816256,0.19440329772683296,-10.75565003825191,1.2608553635104993
8989802316590,-0.42858354910402474,0.17847994131312606,-0.17850692147672606,0.05172671454646206,-10.912269568730663,1.5672489257815152
8989803311790,-0.43071001057945846,0.12940744580046604,-0.185860724469927,0.02299323861701351,-11.031279477577234,1.7464484716270399
8989804302190,-0.4152531021885352,0.12976664325735038,-0.19255584654003957,0.17062387953234998,-11.078999725033425,1.849612297303514
8989805302190,-0.41576748394522955,0.12483210743883123,-0.20664052632447674,0.5550579650769744,-11.093168935020097,1.7594062029426667
8989806297390,-0.40984133896260166,0.13341755254982984,-0.22240962814612622,1.072260562423063,-11.188774302815043,1.5369463444474438
8989807292590,-0.4069016415907858,0.15447730802070297,-0.2491260056681971,1.4992995890153724,-11.241659475336146,1.3057918789964078
8989808283090,-0.38570278320240414,0.13860981215295487,-0.27113118980873857,1.7361030335455792,-11.308292799533394,1.2482577272859379
8989809283090,-0.35681682138871385,0.1852286997774063,-0.2904762830004534,1.7935699560765135,-11.574170825623385,1.4035596841153082
8989810278290,-0.3255049993975435,0.19486504979969654,-0.3080730678179369,1.7271856853136383,-11.834999104964668,1.6250398852720234
8989811273490,-0.28430898147539807,0.18633650518880662,-0.332724801924621,1.6221599263937376,-11.963872476436023,2.0496004523941527
8989812263890,-0.250518217175848,0.2346834560630116,-0.3503166735459699,1.5706377846456532,-11.982681288935844,2.3185564471409577
8989813263890,-0.22729467082941468,0.2247883248330842,-0.36576298380407374,1.5181249051857029,-11.839805326388817,2.314822266857403
8989814259190,-0.22052000476073869,0.22017721088831593,-0.374723657455889,1.3952645678073377,-11.488573202341977,2.2109113603632418
8989815254390,-0.21546467586345433,0.23244281603443406,-0.3752831215867951,1.2149371898926207,-11.108532743065027,2.0933209601241436
8989816244790,-0.21578960492222538,0.20128613400574025,-0.3832733192016475,0.987050975588938,-10.884190282188372,1.9904337483611185
8989817244790,-0.2048179531181062,0.2179299753352208,-0.3862051625286397,0.8205949888780654,-10.837447591543311,2.004508333413267
8989818239990,-0.1939756169882598,0.17979113384334305,-0.384490635446098,0.6967437366310874,-10.85124354613628,2.094309206058588
8989819235190,-0.18266458541640523,0.18049234021219607,-0.382262243230006,0.4787656673234601,-10.81339018086287,2.212858074641183
8989820225590,-0.1790087018390547,0.185442565599109,-0.3730804878152375,0.1745870962140142,-10.832013457074309,2.3127673329910734
8989821225590,-0.1799067482573738,0.12439885522803644,-0.36872534500558485,-0.16526058375809866,-10.831763892567613,2.374331655930947
8989822220890,-0.17136056541584518,0.12491519978891029,-0.35369171243356445,-0.45061373902177354,-10.683757201985,2.4832285768927105
8989823216090,-0.1740686883351249,0.09553727964681706,-0.34146175759355424,-0.616078958494656,-10.431686771883498,2.4836976325386892
8989824206490,-0.17607521469925946,0.04397890125188832,-0.32938493235942573,-0.6973253581732414,-10.165790337419944,2.4466274667471324
8989825206490,-0.1738763741623294,0.0704748592218052,-0.31804450933194117,-0.6923713152013381,-9.923764540652225,2.257723771262431
8989826201690,-0.1720581466027799,0.04219034011204949,-0.3023078788066186,-0.6121157121877864,-9.772058915496048,1.9849060785294685
8989827196890,-0.1659796085744052,0.06199368385244444,-0.28387316478540703,-0.5358233850072286,-9.719542414548268,1.7385988039957943
8989828187290,-0.15785806431436825,0.04230573801611405,-0.2629531803958231,-0.5021358512437336,-9.72452689631309,1.4982116100603753
8989829187290,-0.1420388050301294,0.03638206267503276,-0.2433434015667614,-0.5120439372866212,-9.814784494882216,1.3050896880390226
8989830182590,-0.13094488829575188,0.05152145200951232,-0.22294834531342242,-0.5883362939933033,-9.82365657629594,1.144642122443249
8989831177790,-0.13256028776979817,0.005927465200015275,-0.2017982606782,-0.6259870444384626,-9.685751271223834,1.1536864445487849
8989832168190,-0.13275048148254892,0.03175501473456528,-0.1811702165496,-0.5021358512437336,-9.534076714151173,1.111288964511949
8989833168190,-0.13235317507359862,0.04032635629495575,-0.16756229772034562,-0.12265577141657372,-9.467896898977754,1.026087427938857
8989834163390,-0.13804364787658988,0.02514181073311323,-0.15974348099681027,0.4123813966596656,-9.468289799370442,0.9071098326905951
8989835158590,-0.11896304920881888,0.07002451631627371,-0.1529723407927023,0.8344663211287416,-9.502324686500273,0.6001366210183476
8989836149090,-0.10886158432713694,0.09064237483065103,-0.14872262289766344,1.0296557690060004,-9.592733842752612,0.40671541474216444
8989837149090,-0.09714046875972981,0.10535821309516562,-0.14313790428856163,1.0009222486882843,-9.839701920831459,0.2745477323145919
8989838144290,-0.08234469842226214,0.14497596513556732,-0.1332526361894889,0.8820250985645396,-10.062798342977622,0.2784595140842513
8989839139490,-0.06385990497665117,0.150406758526146,-0.1296340000566875,0.8731078683380156,-10.029065916437373,0.5808899190674859
8989840129890,-0.04064616959088704,0.18952582610535723,-0.12554970918155642,0.9672348035031627,-9.88728996475793,0.8162894565747492
8989841129890,-0.03287871980080148,0.17959262768513617,-0.12413561838648107,0.9910141627444778,-9.777203578008235,0.868557863972308
8989842125090,-0.027301008108041345,0.20017853775767713,-0.11108925030149457,0.8968873456838286,-9.587676601705374,0.6236078893956908
8989843120290,-0.028225031394650775,0.23453776351869537,-0.09203198394260904,0.682872404479492,-9.259191602796385,0.39767280560776636
8989844110790,-0.02815951421271386,0.20901445581590739,-0.07602022759464393,0.4123813966596656,-9.064575371133566,0.34209962977374053
8989845110790,-0.01492493872795072,0.22604432093390786,-0.05900661071554279,0.27961291418616363,-9.235089081249017,0.31357498981082843
8989846105990,-0.002838141981887295,0.23594544721035132,-0.043794557633272876,0.32221773712935065,-9.487070235771522,0.2985106219489373
8989847101190,0.00629101716001659,0.21724362830674998,-0.020487027110716826,0.35590527089284574,-9.46824832656572,0.3221178493521036
8989848091590,0.0005564338779360332,0.23654605503436477,0.0053834517014124655,0.19440329772683296,-9.258832899298179,0.45945394181097676
8989849091590,-0.007790137010013464,0.21399360951491725,0.033486509898418546,-0.18904001304964854,-9.045287074603332,0.42277713904954584
8989850086890,-0.009816530063182696,0.20718722535553696,0.06544137860409399,-0.5833822214952755,-8.968619521766295,0.39978221164602146
8989851082090,-0.006133894938877093,0.17019254012580454,0.09190341805307908,-0.8300938406467434,-8.89702012389275,0.5981864379454123
8989852072490,-0.0014605224646655904,0.12702031304857359,0.12471934590843702,-0.9489909907704881,-8.82154622315387,0.9530186052659908
8989853072490,0.0014670557611335556,0.14279233141069952,0.14915892288664015,-0.9767336552718408,-8.883025536382924,1.2219013686640825
8989854067690,-0.00042808462826374617,0.08515021471356003,0.17399197381028877,-0.9440369477985848,-9.006047972536223,1.245381961025609
