#timestamp [ns],w_RS_S_x [rad s^-1],w_RS_S_y [rad s^-1],w_RS_S_z [rad s^-1],a_RS_S_x [m s^-2],a_RS_S_y [m s^-2],a_RS_S_z [m s^-2]
8717536729090,0.0020108473988948838,0.0009920527153786732,0.0010153677008143784,0.1745870962140142,-9.686339166631866,1.0589456916980242
8717537729090,-0.0017308012883744377,0.012912316461908102,0.00035521077910553953,0.16566980703432221,-9.677404512175881,1.0826061875440716
8717538724390,0.0020906568808174188,-0.018426332861045707,0.0002556019634283599,0.19440329772683296,-9.648660423736038,1.0963798172517978
8717539719590,-0.00010907070082987955,0.00789751341414733,-0.00018580154699896628,0.22214596222818556,-9.648680796346442,1.072700033800792
8717540709990,-0.002513427824379336,0.0007791315286043987,-0.003112659223801273,0.2033205870056059,-9.677432160733996,1.062851790233989
8717541709990,-0.0008993962242874343,-0.007500880959800001,-0.002295697653307583,0.2033205870056059,-9.677432160733996,1.0727015184630389
8717542705190,0.0014086027192049717,0.012036042012858225,-0.001793425910056678,0.2181827160203969,-9.648677885967343,1.0776306811330765
8717543700390,-0.00783487094514758,-0.01775191294716764,-0.00234409292389571,0.2181827160203969,-9.64371814238154,1.0727102975829121
8717544690890,-0.00122729305537541,0.013273660841239585,0.0027400553887170307,0.1983665439346216,-9.643703590529334,1.0727392138319276
8717545690890,-0.0028924669410484447,-8.992038105819916e-05,-0.004372109618757957,0.21322867294941256,-9.619908113348634,1.072739032776171
8717546686090,-0.0010422133835252421,-0.014769146406484097,-0.0020937867998472863,0.2181827160203969,-9.634790982267518,1.0490789439929864
8717547681290,-0.0032123754730699096,0.024069048008307177,0.00043571342930899017,0.18944925475492957,-9.66254368957204,1.0353062099311188
8717548671790,0.0009682955824207341,-0.014802340631091686,0.002793134958266168,0.18944925475492957,-9.643697042187219,1.049112807985774
8717549671790,-0.0015241556374204351,-0.006011383080857045,0.0007276548622311323,0.18944925475492957,-9.658575327043973,1.054024231458716
8717550666990,-0.0036038531841193866,0.017923917626026638,0.0016497982083536287,0.17954116871204195,-9.66749615723174,1.0628954499257321
8717551662190,0.0017266996827602597,-0.012909870607870137,-8.21403933581235e-05,0.1983665439346216,-9.648663334115138,1.058945043370522
8717552652690,0.00051775783845777,0.007283080115209228,-0.0028267931908061415,0.2033205870056059,-9.662553875877242,1.049075540978527
8717553652690,0.0023724429588636766,-0.0055220695551565745,0.00046803451492573225,0.18449521178302625,-9.643693404224205,1.0441951729826795
8717554647890,-0.004646073819029737,0.002288624233607088,-0.002844871112738399,0.18449521178302625,-9.653612891495003,1.0589608042466918
8717555643090,0.002512005917869844,0.00036723071297774246,0.00038221808996206225,0.17954116871204195,-9.66749615723174,1.0825949062853344
8717556633590,-0.0017961686941388687,-0.014770640620982496,-0.0013386508624031383,0.20827462997750923,-9.65858915131219,1.0677864508528145
8717557633590,0.0006652743297183954,0.016523680235110735,0.0030072835065689,0.22214596222818556,-9.677445985002214,1.0677491838455675
8717558628790,-0.0015244416401424916,-0.006127218532158349,-0.0010297180485012826,0.2033205870056059,-9.667513619463044,1.0776353427040346
8717559623990,-0.0009023600167099412,-0.008759278939684735,-0.0013004905611605604,0.20827462997750923,-9.629823962656419,1.0589476108617453
8717560614490,-0.0005874379017077411,0.018183196788924882,-0.001870904669417554,0.20827462997750923,-9.643710866455436,1.0441604734668004
8717561614490,-0.0006652598181914006,-0.014791382553850266,0.0017944814607645547,0.21322867294941256,-9.667520895389075,1.0776208845796715
8717562609690,0.0002507602696340174,0.0006410615638297659,-0.0024947668978921138,0.2320540481719922,-9.677453260928244,1.0825093180155305
8717563604890,-0.0022615079675827937,0.0010396916852801821,-0.005119188139853259,0.2181827160203969,-9.682402818308113,1.0726753507611482
8717564595290,-0.0033957186233355206,-0.00036382219254946224,0.0002699808604716596,0.17954116871204195,-9.66749615723174,1.0825949062853344
8717565595290,0.0054290659702343255,0.011755557993494377,0.0012035619215930446,0.17954116871204195,-9.67245495491689,1.091455135096872
8717566590590,0.00020844844944374954,-0.017286154016394942,-0.000860069475715204,0.20827462997750923,-9.677435798697012,1.0914087260035548
8717567585790,-0.000850010713467745,0.013408496715843633,0.0007322841631194491,0.17954116871204195,-9.66749615723174,1.0628954499257321
8717568576190,-0.0012527327151803727,0.00249862812508278,0.0025413249314465694,0.17062387953234998,-9.648642961504807,1.0540606620881332
8717569576190,0.0025977464855848724,-0.01653098102193441,-0.002995289962978834,0.20827462997750923,-9.64867061004124,1.0352912845780404
8717570571490,0.002430409996577461,0.019023679541849234,0.003018858798511416,0.21322867294941256,-9.667520895389075,1.040191893965404
8717571566690,-0.002294352903871687,-0.012877281065297973,-0.0035826953069580053,0.1983665439346216,-9.662550237914155,1.0628724599871466
8717572557090,0.00023359229486985024,-0.006636418640106459,-0.0006621912202417596,0.19440329772683296,-9.662547327535055,1.058938281536911
8717573557090,-0.00299270421239892,0.01066796385013069,-0.0009108793879951415,0.19440329772683296,-9.658578965006988,1.040227429859113
8717574552390,0.0007252588875146029,-0.011295142705870443,0.0031941661036537566,0.1983665439346216,-9.643703590529334,1.044174931591308
8717575547590,-0.006886058921662798,0.011546799952230367,0.0012400985527037146,0.1983665439346216,-9.672468779185108,1.0776380921057531
8717576537990,-0.003445708390006248,-0.02153596496245094,-0.0005013211239104816,0.17954116871204195,-9.686342804616563,1.072728152539051
8717577537990,-0.0018833811416338218,0.0015085126489323766,0.0006544742330632227,0.1745870962140142,-9.658564413133174,1.0589707827537669
8717578533290,-0.001098360420945469,0.01467112656618725,-0.0008894713447241088,0.17954116871204195,-9.643689766261117,1.086556256724549
8717579528490,-0.0033232960762666006,-0.022907244544942064,-0.001891205764913102,0.17954116871204195,-9.658568051117872,1.0727532435947935
8717580518890,0.0007942146678974454,0.017928578009353845,-0.0020023665562409667,0.19440329772683296,-9.682385356076807,1.0402059237281804
8717581518890,0.0007646118187447822,0.005378404836902259,0.0016764153119682677,0.2033205870056059,-9.672472417148194,1.0589163090318572
8717582514190,-0.0004301993920301575,-0.021670833944910324,-0.0006370038056573899,0.18944925475492957,-9.658575327043973,1.0589490955239922
8717583509390,-0.0001927221225436022,0.025691065265800922,-0.0001899056669067336,0.17954116871204195,-9.69130160230171,1.0628739446493936
8717584499790,-0.005566207105432061,-0.014870962085215225,-0.0035861804536962004,0.18449521178302625,-9.662540051609026,1.0727424296075678
8717585499790,-0.0002577916019972284,-0.0018645629328025576,-0.002259312675344288,0.2033205870056059,-9.648666972078225,1.0540129502429196
8717586494990,-0.005653151283941378,0.0015071253802816237,0.003300961742424618,0.20827462997750923,-9.65858915131219,1.0539967610050185
8717587490190,0.002364735558004887,-0.008795390632308334,0.0033315975807779166,0.1983665439346216,-9.643703590529334,1.0490997956565842
8717588480690,-0.00048041914789709404,0.010285557201634064,-0.001297636382806304,0.19440329772683296,-9.643700680150234,1.054030443087366
8717589480690,-0.0006634736874485334,-0.014028771728822765,-0.0002078593846464834,0.21322867294941256,-9.648674248004255,1.0628633179010765
8717590475890,0.0010162363550385647,0.0055136639415308275,-0.0003309655315403212,0.2181827160203969,-9.648677885967343,1.0776306811330765
8717591471090,0.0016329829400149772,0.0006167618353876345,0.0011394480652240201,0.22710000520008888,-9.667531081694277,1.0628260508938294
8717592461590,-4.048938560700585e-05,-0.016270740863265257,-0.0031108576181047105,0.22214596222818556,-9.677445985002214,1.0726740480093413
8717593461590,0.0006712054112550311,0.019043852276103633,0.00038954047613821725,0.22214596222818556,-9.658599337617392,1.0864806460639964
8717594456790,-0.001150726546976246,-0.007512870657750921,8.893218071724749e-05,0.2181827160203969,-9.672483331037313,1.0677594476276877
8717595451990,-0.0007790678606849864,-0.009762097545490078,-0.0013076960638811652,0.2181827160203969,-9.677443074623115,1.0490404131010063
8717596442490,0.0012843991678398933,0.012639979826180675,0.002477060031821624,0.21322867294941256,-9.672479693074225,1.0441272586131682
8717597442490,-0.0035465034411188232,-0.010996231274092955,-0.003064151488875638,0.21322867294941256,-9.667520895389075,1.0539814665028255
8717598437690,-0.0014729860990313611,0.0156585775864072,0.0021296930256991574,0.22710000520008888,-9.653644177994451,1.053973770211839
8717599432890,0.0004718716621278495,-0.012171381339867737,0.0031889831391799317,0.2033205870056059,-9.653626715763219,1.077647887804564
8717600423290,0.0011338938462277272,0.002117324400466601,0.0020294921827731715,0.20827462997750923,-9.662557513840257,1.0776325941569649
8717601423290,-0.0017257548541886186,0.015059296681288525,-0.002766950934397488,0.22710000520008888,-9.682409366650226,1.0628126102029083
8717602418590,0.0037209772144185336,-0.019797327026942178,-0.002142691189644474,0.21322867294941256,-9.672479693074225,1.053976986842218
8717603413790,0.0022846545936336705,0.010522031015962656,-0.0004262569006715424,0.2033205870056059,-9.658585513349175,1.0490791259034267
8717604404190,0.0010224359243635288,0.00813277769535932,0.0019453085891738137,0.2033205870056059,-9.667513619463044,1.0727104786387585
8717605404190,-0.0012982915172125116,-0.016800113266311655,0.002911993704809073,0.1983665439346216,-9.648663334115138,1.0727347333168156
8717606399490,-0.0009688672978193117,0.016288771764709407,0.0011286659329701777,0.18449521178302625,-9.634766244110184,1.0776923838739927
8717607394690,-0.005288874131505358,-0.0038610563785497973,-0.0006262799793497137,0.22214596222818556,-9.648680796346442,1.077624897866068
8717608385090,0.0008748992986351671,-0.0011267498091188585,-0.00037572661293204133,0.24592540994879297,-9.662585162398374,1.0588630991949148
8717609385090,-0.004156779175975119,-0.0033778976149674636,0.00200839684040445,0.22214596222818556,-9.667527443731261,1.0825327363156132
8717610380390,0.00035776449357624585,-0.0072700994875427305,0.0005878166582850156,0.237008120769101,-9.662578614056258,1.0677409373066244
8717611375590,0.0011676437583399528,0.01642709043083762,-0.0026410889366370177,0.24592540994879297,-9.65365800228435,1.0539462997150564
8717612365990,-0.0012985768190354454,-0.016915272840871406,0.0010291552300926467,0.237008120769101,-9.643731966671437,1.0588931371398358
8717613365990,0.0015093993757742726,0.0014976611815533045,0.0005184730326951098,0.2181827160203969,-9.638758398696543,1.05892508815182
8717614361290,-0.0012228298360701141,0.015178158215706679,-0.0018893994947805168,0.19440329772683296,-9.643700680150234,1.054030443087366
8717615356490,-0.000680915042341244,-0.021409918877327745,-0.0023910402640808584,0.19440329772683296,-9.667507071120857,1.0589338010217992
8717616346890,-0.002864390157721515,0.011788468034208674,0.00035105545083626184,0.1983665439346216,-9.672468779185108,1.072713228040477
8717617346890,0.0002536918052616086,0.0018683626472243836,0.0022814513439514588,0.18944925475492957,-9.66254368957204,1.0776600646106624
8717618342090,-0.0015336253258688443,-0.010024329822211912,0.0013277224073309953,0.2033205870056059,-9.638747484807425,1.0540219112732332
8717619337290,0.0021539731872216566,0.00839845728522115,-0.0015695409803250437,0.2320540481719922,-9.634801168572647,1.0628483925479084
8717620327790,-0.0023061863290860718,-0.017889913753416205,-0.003491305998759571,0.22710000520008888,-9.667531081694277,1.0825255072534317
8717621327790,0.0004181078972747233,0.018287506868573805,0.0013889357522478551,0.2033205870056059,-9.658585513349175,1.0677936799149963
8717622322990,-0.00016409148330097465,-0.015406740864460939,-0.0005951886460104088,0.1983665439346216,-9.648663334115138,1.0776595973820917
8717623318190,0.0008799352157663788,0.0010100907382459001,-0.0016159016649742708,0.2033205870056059,-9.648666972078225,1.0678026400907157
8717624308690,-0.000101975274957148,0.01090063082895594,0.0005874391064987321,0.21322867294941256,-9.643714504418451,1.0677926624814644
8717625308690,-0.004060110861715015,-0.015657623704374474,0.0019245192794227674,0.2033205870056059,-9.648666972078225,1.0589378143081958
8717626303890,-0.00022290539102318672,0.01290110935051559,0.0014797201499642696,0.1983665439346216,-9.658581875386089,1.0402216465921048
8717627299090,-0.001237918665762591,0.008785884170042717,-0.0015564495923495298,0.2033205870056059,-9.667513619463044,1.0776353427040346
8717628289590,0.0015853520021496884,-0.019560426836349523,0.0017550850675676893,0.19440329772683296,-9.667507071120857,1.0825732190986452
8717629289590,3.167202302772811e-05,0.014284628668923403,0.0003591188899671801,0.18944925475492957,-9.682381718113792,1.0677924151755795
8717630284790,0.002986839115424784,-0.011405819636109558,-0.0009540800817738346,0.2033205870056059,-9.662553875877242,1.0776398232191464
8717631279990,-0.0009931321052264446,0.006006820285296054,0.0024389324722691877,0.22710000520008888,-9.643724690723653,1.0726972852537224
8717632270490,0.00013069056015309766,0.002991748650465323,0.0031677695101246838,0.237008120769101,-9.643731966671437,1.0677579629223557
8717633270490,-0.0034273697675357537,-0.013769458487992499,-7.210521457136961e-05,0.2181827160203969,-9.648677885967343,1.0589161271215066
8717634265690,-0.0002163896743464849,0.015665123810722242,0.00011833881322892252,0.2181827160203969,-9.653637629652337,1.058911646606305
8717635260890,-0.0012876147193335808,-0.012262988290402507,-0.001950502377775608,0.22710000520008888,-9.658602975580408,1.077608708628167
8717636251390,0.000989314801268605,-0.005890566814189098,-3.2092084958604446e-05,0.22214596222818556,-9.658599337617392,1.0776159376903487
8717637251390,-0.0004718397156569165,0.013919904398198985,-0.0013983966986605648,0.20827462997750923,-9.65858915131219,1.0914257516192858
8717638246590,-0.0011812140498710802,-0.020436238359894554,0.003263295648570681,0.1983665439346216,-9.67742852277091,1.0914231841280624
8717639241790,-0.0017328734175812623,0.012033871988261752,0.0006001790271695237,0.2033205870056059,-9.677432160733996,1.0589118285167451
8717640232190,-0.002016736832059548,-0.0017542437179180609,0.001636440934560189,0.20827462997750923,-9.67247605511121,1.0628490416869194
8717641232190,0.0014928721181137125,-0.005481902162948964,-0.006429851548654602,0.21322867294941256,-9.672479693074225,1.067766676690014
8717642227490,-0.0025095962076334922,0.0023944996592894993,-0.0005922689823456722,0.2033205870056059,-9.682391904418994,1.0628473097187874
8717643222690,-0.0007923824832211006,-0.015403254196949219,-0.0008441691306903692,0.20827462997750923,-9.67247605511121,1.0441344876753498
8717644213090,-0.0008482126721538119,0.014182595459080995,-0.0034029746963191573,0.2033205870056059,-9.667513619463044,1.0539959246271886
8717645213090,-0.0008875852309579452,-0.002509877665671331,0.0016278176013422088,0.2033205870056059,-9.672472417148194,1.0727059989781509
8717646208390,-0.002666323132847554,-0.010768900822856711,0.0006987940984052995,0.21322867294941256,-9.672479693074225,1.0490521226784444
8717647203590,-0.000456766311212874,0.020297306826253775,0.001028900207276428,0.20827462997750923,-9.66751725742606,1.0589135596302832
8717648193990,-0.0025569411404084974,-0.017666852557132434,0.0017807406364278699,0.1983665439346216,-9.658581875386089,1.0776506372063723
8717649193990,0.00591425451784937,0.004368650013046808,-0.00022838508939393085,0.19440329772683296,-9.658578965006988,1.0628818281790544
8717650189290,-0.002610686874202902,0.01280893510332131,-0.0031559512547481103,0.2033205870056059,-9.64370722849242,1.0776568488348777
8717651184490,0.0034811650694665727,-0.014940232687244686,0.003537273669268804,0.237008120769101,-9.643731966671437,1.0963221277541033
8717652174890,-0.0032469960185500663,0.009399606009801935,0.0020925603587309298,0.2320540481719922,-9.643728328686668,1.0963293568595147
8717653174890,-0.0017893571633177154,-0.011881328918983552,-0.0026991803995134425,0.1983665439346216,-9.662550237914155,1.1012863529494465
8717654170190,-0.0013688883727871297,0.006543772778108706,-0.003955243516519462,0.2181827160203969,-9.677443074623115,1.082529559406902
8717655165390,0.0003802543839355821,0.002260054912377088,-0.0007275614740605151,0.22710000520008888,-9.662571338108474,1.0539657056264213
8717656155790,0.0005919037042215573,-0.014557897167721552,0.0041761324150485,0.20827462997750923,-9.643710866455436,1.077649619772696
8717657155790,-0.0018369236652542257,0.021193967226407998,-0.0017210909251682877,0.20827462997750923,-9.653630353726234,1.0825655228076587
8717658151090,0.003100648361688149,-0.01643442866919681,0.0020226318780085673,0.20827462997750923,-9.677435798697012,1.0726942894008573
8717659146290,-0.0026595172108838166,-0.007884996844035232,0.00034199047361294175,0.19440329772683296,-9.662547327535055,1.0727279714832048
8717660136690,-0.00020662347037951004,0.01980404387271161,-0.0006063427959846854,0.21322867294941256,-9.653633991689249,1.0589188756686312
8717661136690,-0.0033150159730848975,-0.01940157838980789,-0.0013654890867335233,0.22710000520008888,-9.648684434309457,1.0726928047386104
8717662131990,0.0005138904634911755,0.005633237000945902,0.001051570934980128,0.21322867294941256,-9.643714504418451,1.0776423907105144
8717663127190,-0.0015105493983322976,-0.0002489811471929476,0.0010177744399038615,0.19440329772683296,-9.653620167421032,1.0628863078395725
8717664117590,0.000490511710203971,-0.004274168797268042,0.0026153248429503497,0.19440329772683296,-9.672465868806007,1.0589293213611914
8717665117590,-0.0009957804469376743,0.004892648938271182,-7.805011603651164e-05,0.2033205870056059,-9.696278808118818,1.067759628683534
8717666112790,0.0014736179916408337,-0.013651346302078624,-0.0018429922409320234,0.22214596222818556,-9.682405728687211,1.0628198392650898
8717667107990,-0.0004697717932709254,0.014794293004012471,-0.0008905704628109305,0.237008120769101,-9.62984506287242,1.0490559540114053
8717668098490,-0.0017739872343639175,-0.005377949362828666,-0.00039649723067424706,0.19440329772683296,-9.629813776351217,1.0589678522532613
8717669098490,-0.0019034918744757472,-0.007007086091699661,-0.0002817161186342426,0.17062387953234998,-9.648642961504807,1.0589855261534094
8717670093690,0.002676706103439676,0.016900856629069996,0.0014980065248891457,0.18449521178302625,-9.653612891495003,1.0629007659639356
8717671088890,0.0004751473948434856,-0.010772138622758422,-0.0006910847264392627,0.18449521178302625,-9.667499795194828,1.0825876772230083
8717672079390,0.0006247423255430259,-0.0006470102266501188,0.0037688318464424494,0.18449521178302625,-9.67741833646578,1.0914434255194339
8717673079390,0.000402441452805726,0.011658153995029112,-0.0007891339547132638,0.19440329772683296,-9.667507071120857,1.077648355033369
8717674074590,-0.0028049993365952125,-0.01628297943010698,0.0009126318268746431,0.17954116871204195,-9.658568051117872,1.0865428160337176
8717675069790,-0.0011010354058616691,0.013531268050092068,0.0013612456026460378,0.1745870962140142,-9.66253277566124,1.1013210525084107
8717676060290,-0.0028032356464923365,-0.01554200170683626,0.0029251953183500263,0.19440329772683296,-9.658578965006988,1.0727315564081044
8717677060290,0.0027763336080024945,0.005874798474769613,0.0012971825325432352,0.1983665439346216,-9.672468779185108,1.0677883638767032
8717678055490,-0.0017485517813797882,0.0053930274854952845,0.0005550277105098337,0.2033205870056059,-9.662553875877242,1.0677900949900965
8717679050690,0.0033362931107082296,-0.02307071923278279,0.0009729738291701338,0.22710000520008888,-9.629837786924636,1.0864994027932655
8717680041190,0.0020555236524921507,0.01991962831642583,-0.00023611736183047453,0.21322867294941256,-9.619908113348634,1.0776638968414471
8717681041190,-0.000517720984264637,-0.005529825310140447,0.003739119181937431,0.18449521178302625,-9.634766244110184,1.0776923838739927
8717682036390,-0.004066323743650431,-0.01828957723446135,0.002032095103003585,0.21322867294941256,-9.629827600619434,1.0776549358111336
8717683031590,0.0024431533190644623,0.024433843071450516,-0.0010848794068065533,0.2320540481719922,-9.638768585001673,1.0539799826951726
8717684022090,8.632274140448534e-05,-0.015798362000184776,0.002161722017981752,0.1983665439346216,-9.68635662888478,1.0628509538563036
8717685022090,-0.0025187855069509126,-0.0015080213592654282,0.0027688974725465785,0.2033205870056059,-9.667513619463044,1.0589207886924648
8717686017290,-0.0031370249965869384,0.0027495468471762513,0.003678074267808938,0.21322867294941256,-9.662561151803272,1.0727005010295072
8717687012490,-0.0010055487543159077,0.0007517009415542036,0.0010230288856928225,0.18944925475492957,-9.701228365498611,1.0825499818541746
8717688002890,-0.0021175203565377936,0.008796308525887947,-0.0029338417367130104,0.18449521178302625,-9.696264983850602,1.0589222733547117
8717689002890,-0.0038182480214077855,-0.01965655191232153,-0.00023644019545110504,0.19440329772683296,-9.667507071120857,1.062873762739043
8717689998190,0.002037460517819556,0.012258818523946224,0.002974026206784779,0.1983665439346216,-9.662550237914155,1.0677973240524228
8717690993390,-0.00390128836819718,-0.0015934714746331166,-0.0037518820631577306,0.2181827160203969,-9.682402818308113,1.0401712242121568
8717691983790,9.017328435016823e-05,-0.014164744366362253,0.001294536617200262,0.2181827160203969,-9.667524533352163,1.0588991015057756
8717692983790,-0.001722211339080213,0.01655680332994791,-0.001627536097836908,0.2181827160203969,-9.66256478976636,1.0776181360324573
8717693979090,-3.1649195834041605e-05,-0.012544895231027243,0.0030625226709685184,0.21322867294941256,-9.686367542773898,1.0677541307348903
8717694974290,-0.002159237734663158,-0.008877604750257551,-0.00179930354415197,0.19440329772683296,-9.68635371850568,1.0628567371233117
8717695964690,-0.0010980870339539449,0.01477479641769154,0.0031262852321249698,0.20827462997750923,-9.662557513840257,1.0490683119163453
8717696964690,-0.0020519167582626575,-0.016643187212304088,-0.002479841196210806,0.2181827160203969,-9.667524533352163,1.0776136555173452
8717697959990,-0.002472630856085319,0.018045376195254384,0.0016471382555396851,0.18449521178302625,-9.67741833646578,1.0776538529820126
8717698955190,-0.0050668347174388645,-0.016258395015045946,-0.0022169888183285625,0.19440329772683296,-9.672465868806007,1.0441547290668656
8717699945590,-0.0027561865280995588,0.004394053166472657,0.0005513341000151339,0.2033205870056059,-9.672472417148194,1.0589163090318572
8717700945590,-0.000989262626849714,0.007658691333205431,-0.0018158288452875854,0.20827462997750923,-9.653630353726234,1.0628660664480565
8717701940890,-0.0013044847718095085,-0.019413141313576496,-0.00049347217901274,0.21322867294941256,-9.653633991689249,1.0441442833743053
8717702936090,-0.00033848383572116555,0.017183332935731523,-0.0025058291885425134,0.21322867294941256,-9.672479693074225,1.0776164049190637
8717703926490,-0.001132974656194656,7.76836916090845e-06,-0.00036181609098629147,0.2181827160203969,-9.667524533352163,1.0963280921200431
8717704926490,-0.004445366265477797,-0.019162009035317652,0.0013999736283458698,0.2181827160203969,-9.667524533352163,1.0588991015057756
8717705921790,-0.002079383649282852,0.024936890217913628,0.0014418912435058447,0.21322867294941256,-9.682399180345024,1.0490431616481308
8717706916990,0.001221692728512339,-0.013916636498636958,0.001041796936909649,0.1983665439346216,-9.67742852277091,1.0677838833615914
8717707907390,-0.002134665189286733,0.0015411375036322797,-0.0052416364604330875,0.237008120769101,-9.67249715532721,1.0726568412946789
8717708907390,-0.0003958802787819562,-0.0071321008212427185,-0.0012909765485934577,0.24592540994879297,-9.686391553368999,1.0302773108234522
8717709902590,-0.002020567738911714,-0.0033689321611513334,-0.0010094151460991446,0.2320540481719922,-9.667534719657292,1.0441042678200783
8717710897790,-0.000604022648100954,0.01114820514461546,0.0014689640163292666,0.2320540481719922,-9.643728328686668,1.053975502179971
8717711888290,-0.002818000611831309,-0.021781937383433866,-0.0017596335278715573,0.2181827160203969,-9.653637629652337,1.0441370543119792
8717712888290,0.0005319458856584405,0.013286611035281282,-0.0007784493294829809,0.22710000520008888,-9.658602975580408,1.062834116333841
8717713883490,0.0011359849061297056,0.0030140202807127647,-0.001603051493833625,0.2320540481719922,-9.653647815957466,1.0677562309974535
8717714878690,-0.00017949085574475113,-0.021938509694926493,0.002371690287421532,0.2033205870056059,-9.658585513349175,1.0825682722093224
8717715869190,-0.0025962023024935976,0.018938443150411884,-0.0012322209297775258,0.2033205870056059,-9.691319064533014,1.0677641091986458
8717716869190,-0.002033281613648392,-0.008750704611596334,-0.0021752391311573964,0.2181827160203969,-9.682402818308113,1.0677504865973744
8717717864390,0.0004932007223540265,-0.0031207888159242025,-0.0021447072720522293,0.2033205870056059,-9.648666972078225,1.0727275042544895
8717718859590,0.0007737800751990136,0.009260642804740205,0.0020792217532905827,0.2033205870056059,-9.6248605811076,1.0628992821562826
8717719850090,-0.0016663545116773074,-0.013003361163417475,-0.003836429780396717,0.20827462997750923,-9.634783706341414,1.0628830920637875
8717720850090,0.0017900019754199473,0.013901403786779974,0.0006020318693680735,0.22214596222818556,-9.667527443731261,1.0441187259444413
8717721845290,-0.0011737996654710044,-0.017285513518139957,-0.00010298249360693804,0.2320540481719922,-9.677453260928244,1.0588698999386845
8717722840490,-0.0018813370579052035,0.002359917997924642,0.005428136948397883,0.22710000520008888,-9.677449622965229,1.077591683012436
8717723830990,0.00028031824578512044,0.013147972036811999,0.0018562607345059086,0.20827462997750923,-9.662557513840257,1.0628580018626388
8717724830990,0.0001992787885869516,-0.021169744841428285,-0.0010119445958210955,0.18944925475492957,-9.658575327043973,1.062889057241236
8717725826190,-0.003122489943016414,0.008927725319076776,-0.0034317312216361256,0.18944925475492957,-9.653616529458017,1.072743265130804
8717726821390,-0.002375362289610396,0.006024360234823223,5.937515119093864e-05,0.21322867294941256,-9.662561151803272,1.0401963744805158
8717727811890,0.0010856895025355175,-0.018292886330247584,-0.000618684701309899,0.21322867294941256,-9.667520895389075,1.040191893965404
8717728811890,-0.001595972218156107,0.016796159129212014,0.0003812298445040772,0.19440329772683296,-9.648660423736038,1.072740516583824
8717729807090,0.0013677657861054637,-0.005268733405504468,0.0005983255628119926,0.1983665439346216,-9.667509981499958,1.0628679794720346
8717730802290,-0.0018780571226285165,0.0037632147785620074,0.0007952745865975434,0.19440329772683296,-9.667507071120857,1.077648355033369
8717731792690,-0.002144451034079754,-0.0026167137531886916,-0.0010039134837818522,0.1983665439346216,-9.658581875386089,1.0825755012716485
8717732792690,0.002371826781554903,-0.005796327179166262,0.004857632430020456,0.20827462997750923,-9.64867061004124,1.0677954110285341
8717733787990,0.0002803308662515467,0.013160139644096056,-0.0004021234198432252,0.22710000520008888,-9.643724690723653,1.0726972852537224
8717734783190,0.0005972726047457425,-0.012259928732176066,-0.0037128763059989392,0.2181827160203969,-9.658596427238294,1.082546585022633
8717735773590,0.0010055651707507017,0.000981948694123054,0.0035278045519843877,0.19440329772683296,-9.638740936465238,1.0914639142168348
8717736773590,0.0021696403325942616,0.015028486039833658,0.00048306235967117417,0.20827462997750923,-9.64867061004124,1.0825700033228602
8717737768890,0.0022109944618562485,-0.02067876083011538,-0.0003874513739437909,0.21322867294941256,-9.653633991689249,1.0490691474395815
8717738764090,0.0010428663102411261,0.01679665703214009,-0.0013834852364441172,0.2181827160203969,-9.638758398696543,1.044150495857494
8717739754490,-0.003272127243748638,-0.0012379618616047833,-0.0003637016502827336,0.21322867294941256,-9.638754760733455,1.067797142996666
8717740754490,0.0032458436825371154,-0.008152957715870095,-0.00017991602075306725,0.18944925475492957,-9.66254368957204,1.0825849286759386
8717741749790,-0.002999515042083736,0.007779328125653247,0.00032418448544006915,0.17954116871204195,-9.677414698502693,1.0825859461096148
8717742744990,0.00021347034833285507,-0.015162831126272466,0.00040907086651833374,0.17954116871204195,-9.653609253531915,1.058968033309018
8717743735390,0.0029227143030375498,0.01465949234217935,-0.0012783551178517506,0.18944925475492957,-9.634769882073197,1.0678354265827612
8717744735390,-0.0006575692446181879,-0.011534284950193069,0.0019420967320572897,0.2033205870056059,-9.6248605811076,1.0865385828242564
8717745730690,-0.002516418956645031,-0.0005056276917058122,0.0027757127795279115,0.20827462997750923,-9.63875112277044,1.0678043720588477
8717746725890,0.001552301417956519,0.019674117585172395,-0.000863589273722301,0.20827462997750923,-9.67247605511121,1.0776236339812455
8717747716290,-0.0013086227178594912,-0.021163945554533964,-0.0011327278542981865,0.20827462997750923,-9.65858915131219,1.0914257516192858
8717748716290,-0.0008716271789292358,0.00424071668153117,0.004559533692896132,0.18449521178302625,-9.643693404224205,1.0826091833538511
8717749711590,-0.004499418536019614,0.011178339809089617,-0.0016555837144369124,0.17062387953234998,-9.653602705189801,1.0678458714207277
8717750706790,-0.00030008869381505793,-0.01977758106809399,-0.0032593964859653495,0.19440329772683296,-9.662547327535055,1.0352989808689372
8717751697190,0.0006537633618517481,0.011662031956232756,-0.0016681746201656343,0.19440329772683296,-9.643700680150234,1.058955307152642
8717752697190,0.002985939038801847,-0.011793884779937643,0.0013017481323084152,0.18449521178302625,-9.65857168908096,1.0825957426630197
8717753692390,0.002535392379165941,0.01028207036479193,-0.0025616591351093603,0.1983665439346216,-9.658581875386089,1.0628760449120462
8717754687590,0.00024188712642343214,-0.0031165550405797965,-0.0027712556744875403,0.2320540481719922,-9.653647815957466,1.0628313669321774
8717755678090,0.0011028651853091376,-0.011007972272170319,-0.0038313837964340644,0.22710000520008888,-9.653644177994451,1.077613188288685
8717756678090,-0.006617587271908981,0.01881058078266637,0.0017905921622648749,0.20827462997750923,-9.64867061004124,1.072720275192308
8717757673290,-0.0026728423507117547,-0.013536293268289975,0.0026875041679556167,0.20827462997750923,-9.65858915131219,1.0490718968412451
8717758668490,-0.0005150396933766895,-0.004383884796330402,0.0003592104462430256,0.2033205870056059,-9.653626715763219,1.0589333337929943
8717759658990,0.0002936293583786411,0.018785746995277304,0.0020200623081682778,0.2033205870056059,-9.658585513349175,1.0825682722093224
8717760658990,-0.00558900053143461,-0.024533853294700286,-0.0008915307423490713,0.2320540481719922,-9.672493517342442,1.07266407040009
8717761654190,0.0009012116864636627,0.01000998310159177,0.0024603405162217495,0.24196216374100432,-9.677460536876028,1.0627954034883353
8717762649390,-0.0012562923474440232,0.000985577790619828,0.004287622593508705,0.22710000520008888,-9.6863777290791,1.0628090252780984
8717763639890,0.0027470539178088994,-0.006523714108819578,8.365100238963245e-05,0.22214596222818556,-9.677445985002214,1.0825237761398936
8717764639890,0.0005236678858863125,0.009782972813252369,-0.001680563099060453,0.1983665439346216,-9.667509981499958,1.0776425717663607
8717765635090,0.00022796473572433452,-0.009023859484386085,0.0005762800926490744,0.18449521178302625,-9.667499795194828,1.0589482591461623
8717766630290,-0.00310329681971634,0.017038357559779928,0.0028969314323871584,0.18944925475492957,-9.643697042187219,1.0776770902263935
8717767620790,-0.0032848509299054675,-0.006629196100377641,0.0002269950742759411,0.17954116871204195,-9.634762606147095,1.067849884707269
8717768620790,0.001114979008884038,-0.00588490995192506,-0.0011616741682604704,0.2033205870056059,-9.634780068378399,1.0540254953434491
8717769615990,-0.0018469856923579624,0.016929746114079172,-0.0009972612418504474,0.22710000520008888,-9.619918299653836,1.072718791384655
8717770611190,-0.0013021259385076348,-0.018418185310868203,0.0008934668206621258,0.21322867294941256,-9.629827600619434,1.0628803435168075
8717771601690,-0.00038346432633351666,-0.0018776555515599563,0.0002503929153522804,0.20827462997750923,-9.653630353726234,1.0589261047308127
8717772601690,-0.0002228934716953417,0.012912600978115023,-0.0006531979392193259,0.20827462997750923,-9.629823962656419,1.0540227467964691
8717773596890,-0.003943017665413174,-0.01927887627759811,-0.00048442588110417586,0.20827462997750923,-9.634783706341414,1.0589431303465437
8717774592090,0.0014177520449612444,0.01590002857139245,0.001996956461671506,0.1983665439346216,-9.667509981499958,1.0776425717663607
8717775582490,-0.001932775070592736,-0.019408978668002504,-0.0008679184277404052,0.2033205870056059,-9.667513619463044,1.0727104786387585
8717776582490,0.00039860282468976924,0.010036026082639711,-0.0020548663549465923,0.21322867294941256,-9.658592789275206,1.0727040859544068
8717777577790,0.0013872876859759957,0.002998970853924199,0.001030949332861521,0.21322867294941256,-9.662561151803272,1.0539859470179374
8717778572990,7.241648111328772e-05,-0.02169011714479475,0.0026235453246612906,0.21322867294941256,-9.662561151803272,1.0539859470179374
8717779563390,0.0009311012439733989,0.02267666960957325,0.0004134655065284468,0.2181827160203969,-9.653637629652337,1.082551064683151
8717780563390,0.003111033552009052,-0.012018545165323125,-0.00359351089028675,0.2033205870056059,-9.653626715763219,1.077647887804564
8717781558690,-0.0011442108347971018,-0.004748858103169804,-0.0012724489682219347,0.18449521178302625,-9.653612891495003,1.0727504941929855
8717782553890,-0.0013390521016850869,0.01915908495011271,0.0035332801436484818,0.1745870962140142,-9.64368612827642,1.062924185161842
8717783544290,-0.002692956584741178,-0.022055269994148627,0.0023786425490731214,0.15576172099143454,-9.648632047594006,1.0540823493179077
8717784544290,0.0009027111088494542,0.010656080591089377,-0.0011739071877052208,0.18449521178302625,-9.648653147810009,1.086544547147111
8717785539590,-0.0008763504543932042,0.0022453969502332083,0.0027893821077274034,0.1983665439346216,-9.662550237914155,1.0776470522814727
8717786534790,-0.00012918493959295473,-0.000621465317035233,-0.0004946630791394357,0.2033205870056059,-9.682391904418994,1.0726970379478373
8717787525190,-0.002239363676822515,0.01039655239458083,0.002472651463050469,0.2181827160203969,-9.667524533352163,1.0864783638909932
8717788525190,-0.004312896234110816,-0.016273124274042105,3.9053581372208886e-05,0.1983665439346216,-9.648663334115138,1.0628850050877656
8717789520490,0.0038091310305561794,0.017541759679965144,-0.0018888215309007918,0.1983665439346216,-9.648663334115138,1.0540201793052457
8717790515690,-0.0037934112106819433,-0.009142930428131715,0.00196803827760006,0.2033205870056059,-9.648666972078225,1.0678026400907157
8717791506090,-0.00253178748332503,-0.007007655291736154,0.00022209808259330676,0.18449521178302625,-9.65857168908096,1.0825957426630197
8717792506090,-0.0030955838055036974,0.020317088264653116,-0.0009703575328339161,0.2033205870056059,-9.662553875877242,1.0865045315927941
8717793501390,-0.00041600993806149584,-0.01566594916633289,0.0011604089420098607,0.2181827160203969,-9.64371814238154,1.0776351616481883
8717794496590,-0.0017674722278175478,-0.0026146146903130094,-0.0016324127288873907,0.2181827160203969,-9.677443074623115,1.0776046953416258
8717795486990,-0.0006034247003515562,0.011404887339006041,0.00034147596647487403,0.22710000520008888,-9.677449622965229,1.067741954783386
8717796486990,-0.0025303020794168766,-0.006375075558638411,-0.0009028344284846483,0.2320540481719922,-9.619921937616851,1.0677866981586996
8717797482190,-0.002619574039914252,0.009037799038446218,-0.0009231248500805194,0.2320540481719922,-9.643728328686668,1.0825397843220932
8717798477390,0.002223123006940605,-0.015541503971872376,-0.00035252299833251656,0.2181827160203969,-9.672483331037313,1.0864738842303854
8717799467890,0.0006522520201375486,0.011004442838594933,0.004098991273317544,0.2033205870056059,-9.653626715763219,1.077647887804564
8717800467890,-0.0016288017336913204,0.002894056093321412,-0.0008425244450355387,0.19440329772683296,-9.648660423736038,1.0540259625722541
8717801463090,0.0003420840263653408,-0.013912971926118373,0.0009190629348862743,0.18944925475492957,-9.677421974428794,1.0441574776139353
8717802458290,-0.0023478525950153123,0.01767581330060905,0.0003895344776934208,0.1983665439346216,-9.68635662888478,1.0589109921390598
8717803448790,9.51979877874317e-05,-0.012038717563449899,0.0020618138028703683,0.20827462997750923,-9.653630353726234,1.0589261047308127
8717804448790,-0.0031577126388081427,-0.006002452938428646,0.00010539845456657669,0.18944925475492957,-9.658575327043973,1.072738785470286
8717805443990,3.167202302772811e-05,0.014284628668923403,0.0003591188899671801,0.17954116871204195,-9.66749615723174,1.0825949062853344
8717806439190,0.0016087265462483916,-0.009657077909441578,0.0009441258374410155,0.17954116871204195,-9.643689766261117,1.0678418201218514
8717807429690,0.001003797269568894,0.00023691330033701052,0.002268035231037262,0.19440329772683296,-9.658578965006988,1.0825812845386567
8717808429690,-0.0024058399744570696,-0.00688954287067382,0.0014772176273924317,0.2033205870056059,-9.672472417148194,1.0825557271087032
8717809424890,-0.0018969635420673916,-0.004230906030614431,-0.003901481322231477,0.18944925475492957,-9.643697042187219,1.0826019542916696
8717810420090,0.00040893752865413854,0.014403237258241032,0.0013625264774794607,0.19440329772683296,-9.653620167421032,1.0727360360686224
8717811410590,-0.000800670299145349,-0.018916356211007554,1.0237594973277857e-05,0.1983665439346216,-9.658581875386089,1.0402216465921048
8717812410590,0.001794452565267628,0.015793729746497426,-0.001769039186796286,0.19440329772683296,-9.67742561239181,1.0628648025633234
8717813405790,0.00013513624204304544,0.004879342764287649,0.0016749587019216482,0.20827462997750923,-9.696282446081833,1.0864668362240502
8717814400990,-0.0024348035130402675,-0.019143152944661602,-0.0033739691471979046,0.2181827160203969,-9.667524533352163,1.072688791452069
8717815391490,-0.002325962751555168,0.026947259377337857,0.0005780414988677046,0.20827462997750923,-9.643710866455436,1.0727247557074198
8717816391490,-0.0014079581101015095,-0.01001664502883504,-0.0001782569709234882,0.1745870962140142,-9.634758968162398,1.0678571138125357
8717817386690,-0.0007773041708204476,-0.009021119924080858,0.0007048677280305227,0.17062387953234998,-9.638723474234007,1.0589944871837227
8717818381890,-0.0007400135481457314,0.006783448844322797,-0.0023244357997461,0.19440329772683296,-9.638740936465238,1.040245351065146
8717819372290,0.001989864639168568,-0.007884570239581782,-0.002683625488304566,0.20827462997750923,-9.67247605511121,1.030344797729056
8717820372290,-0.003369703452160807,0.010646261421086732,0.0033561275166690647,0.21322867294941256,-9.686367542773898,1.0441147126580448
8717821367590,0.0009742266727135861,-0.012282164881250005,0.0001753919530520674,0.21322867294941256,-9.667520895389075,1.049056602339052
8717822362790,-0.001745590096864415,0.006649395626649228,-6.378210244313044e-05,0.19440329772683296,-9.648660423736038,1.062890788354774
8717823353190,1.5697835855785908e-05,0.00751848301557833,0.0003131156467301938,0.18944925475492957,-9.624850394802397,1.0727692517768483
8717824353190,-0.004447133461261803,-0.01990636664565505,1.4738354873344503e-05,0.22214596222818556,-9.634793892646616,1.0539980248897518
8717825348490,0.0012820319253911052,0.011636913990728283,0.0025957103140408855,0.22710000520008888,-9.648684434309457,1.0539782507270405
8717826343690,-0.002138849412504751,-0.0002542821942915566,0.002399848787159288,0.22214596222818556,-9.638761309075642,1.0677841306673317
8717827334090,0.0011007818379113674,-0.011897232395353816,-0.001578963223234189,0.2033205870056059,-9.638747484807425,1.0678116011210292
8717828334090,0.0018015571059211682,0.018805634877197157,-0.002626853666663975,0.1983665439346216,-9.672468779185108,1.072713228040477
8717829329390,-0.0036701381864085473,-0.010164000442557677,0.005348408705909658,0.2181827160203969,-9.682402818308113,1.0726753507611482
8717830324590,0.001525662356963775,0.008382340585596816,0.0018199859919354388,0.20827462997750923,-9.662557513840257,1.067782865927915
8717831314990,-0.007053717994247547,-0.006239816116857564,0.00011579109972718275,0.18944925475492957,-9.667503433157842,1.049091301854931
8717832314990,0.0016267616354444618,-0.0020233072399936797,0.0027526129311065736,0.18449521178302625,-9.672458592879979,1.049094051256505
8717833310190,-0.002728692968411053,0.01602995502635507,0.003767206275516081,0.2033205870056059,-9.667513619463044,1.0677856144749847
8717834305390,0.0017157466980747358,-0.01755336734329032,0.0012664622825714952,0.2181827160203969,-9.677443074623115,1.058890141330056
8717835295890,-0.0033690788612081224,0.010928630782925261,-0.002539059767743341,0.2181827160203969,-9.677443074623115,1.058890141330056
8717836295890,0.000516857757102863,0.006895012967679588,-0.0005709651910996987,0.20827462997750923,-9.662557513840257,1.0963470307596626
8717837291090,-0.0048217508307287025,-0.018910805793431015,0.0015283136444598734,0.17954116871204195,-9.643689766261117,1.0826164124161775
8717838286290,-0.0008402690490555828,0.01752375764589259,0.004398904296257045,0.17954116871204195,-9.653609253531915,1.0491183050799682
8717839276790,-0.002151857002706029,-0.005759325954962025,0.0008567752952118477,0.2033205870056059,-9.648666972078225,1.0628777760254395
8717840276790,0.0021155175280668168,-0.007889729025972566,-0.0018057553465309854,0.21322867294941256,-9.658592789275206,1.077628950019683
8717841271990,-0.0033735371635605694,0.009028869065604371,0.0012121344922005504,0.21322867294941256,-9.662561151803272,1.0776253650947833
8717842267190,-0.00593494867839133,-0.011408629655495411,0.00522144727755631,0.2033205870056059,-9.6248605811076,1.0589593204390388
8717843257690,-0.0015959757238400412,0.016792779239441426,0.0010085585643699897,0.2033205870056059,-9.648666972078225,1.0589378143081958
8717844257690,-0.0015386493236738946,-0.012149678743599585,0.000434979671307463,0.2181827160203969,-9.677443074623115,1.0539652772647798
8717845252890,-0.0017553633122003795,0.0025037157840371235,0.0019155571472475267,0.21322867294941256,-9.653633991689249,1.0441442833743053
8717846248090,0.000419563849172213,0.018891693717669675,0.0055335655196512065,0.20827462997750923,-9.634783706341414,1.0628830920637875
8717847238590,-0.0008110281429961766,-0.023305875667218603,0.0007332153707966405,0.2033205870056059,-9.638747484807425,1.0589467753385093
8717848238590,-8.42212762667419e-05,0.018423299696220904,-0.00023970674551669884,0.2033205870056059,-9.638747484807425,1.0402323387358117
8717849233790,-0.0013674359265758189,0.007144579735270863,0.0008167153722402473,0.18944925475492957,-9.667503433157842,1.044166437789655
8717850228990,-0.004819378675823503,-0.017903006205376396,0.0005314027257378997,0.17062387953234998,-9.682367893845576,1.0254659135408615
8717851219490,0.0005384321545842605,0.016022234415790877,0.003129731624530503,0.19440329772683296,-9.667507071120857,1.0352945003538254
8717852219490,-0.0019102851759736188,-0.00987882246377787,-0.0021832965478184086,0.21322867294941256,-9.677439436660027,1.0628373321096258
8717853214690,0.0017802455783783692,0.00977194361019685,-0.0004298075451021348,0.20827462997750923,-9.662557513840257,1.0490683119163453
8717854209890,-0.0003914303855747387,-0.005240448935043572,-0.0035365818277610555,0.2033205870056059,-9.648666972078225,1.04416322201387
8717855200290,-0.0024014104142210486,-0.0050174943493621685,0.002870119706353501,0.237008120769101,-9.66753835764206,1.0539467669437166
8717856200290,-0.0017124633646742977,0.020678147960695822,0.0009098924593076482,0.22214596222818556,-9.677445985002214,1.0628243197802913
8717857195590,0.0012001302505948806,-0.023032366219450442,-0.004791817866850008,0.2033205870056059,-9.662553875877242,1.0677900949900965
8717858190790,-0.0009839589320582622,0.009893793807877915,0.001963478690846762,0.2181827160203969,-9.653637629652337,1.053986782541029
8717859181190,-0.0008532598074765313,0.012034939261638296,-0.00015534721876842537,0.21322867294941256,-9.63478734430443,1.054011037219086
8717860181190,-0.0024404254607240453,-0.021525184962051483,-0.003139223939873418,0.2033205870056059,-9.614941093836801,1.067833107251872
8717861176490,-0.0009863093559771292,0.008906947737612088,-0.0009290494896680899,0.21322867294941256,-9.638754760733455,1.0589323172141463
8717862171690,-0.0005046699325656845,1.712528400695662e-05,-0.002496685224834005,0.2033205870056059,-9.672472417148194,1.077630863043427
8717863162090,-0.0019017127595983068,-0.006251236951838858,-0.001029399336517287,0.2033205870056059,-9.677432160733996,1.0963408191310127
8717864162090,-0.0015034532713204237,0.0027548122478410694,0.0016655489278634096,0.2181827160203969,-9.672483331037313,1.0677594476276877
8717865157390,-0.0027860788899207985,-0.008275337154059537,0.0031000722669533966,0.2033205870056059,-9.653626715763219,1.062873295510238
8717866152590,0.001550824431950936,0.019049651393126754,-0.0012442459189492797,0.2181827160203969,-9.619911751311722,1.0628820754847947
8717867142990,-0.004939989435938956,-0.015754245183180936,-0.0028413001934811796,0.2181827160203969,-9.61495200772592,1.058946594282663
8717868142990,-0.0008736831819856992,0.003377819704939472,0.0019187890667450667,0.2033205870056059,-9.64370722849242,1.0589422948233078
8717869138290,0.0005328452656397937,0.013674002104509489,-0.0029088115658232484,0.1983665439346216,-9.653623077800132,1.0490908346262708
8717870133490,-0.0004210143040305663,-0.017772370699273,-0.0032453756892124675,0.1983665439346216,-9.653623077800132,1.0490908346262708
8717871123890,-0.0022470430279438788,0.007150272245847168,0.00031758367814414736,0.1983665439346216,-9.67742852277091,1.0589190575790715
8717872123890,-0.001368922027358846,0.0065113258305787985,0.0020671132581429877,0.2181827160203969,-9.682402818308113,1.0628256225320982
8717873119190,-0.0024342392198631446,-0.018918917698341718,0.0015208996779827628,0.24592540994879297,-9.682423190940126,1.0726348679351756
8717874114390,0.0021684689858792443,0.01453878469177923,-0.0016532631560189893,0.2033205870056059,-9.672472417148194,1.062856270749101
8717875104790,-0.0014126771744854228,-0.012007907088536114,-0.002701202927365698,0.19440329772683296,-9.653620167421032,1.0678111719048486
8717876104790,0.003413217755117109,0.009518498878954146,-0.0009384472434931556,0.2181827160203969,-9.658596427238294,1.0726968568920807
8717877099990,-0.0013902146242053687,-0.002504114028740144,0.0008765837504167932,0.21322867294941256,-9.682399180345024,1.0628328515944243
8717878095190,-0.002305044425627182,-0.017428601582137205,0.003914582121746314,0.22214596222818556,-9.672486241416411,1.0441142462838338
8717879085690,0.0020667661503189997,0.024682342399864166,-0.00045467623475345257,0.2181827160203969,-9.677443074623115,1.0628301030472997
8717880085690,-0.0044483104236977804,-0.020401478624363256,-0.0011178611678906098,0.19440329772683296,-9.67742561239181,1.0727145307923733
8717881080890,-0.0020273925958309473,-0.006271089351418218,0.00273496399534111,0.18944925475492957,-9.672462230842992,1.054011686358097
8717882076090,0.0015457885148191623,0.016912810845221213,-4.070766534438469e-06,0.20827462997750923,-9.66751725742606,1.0864928220155008
8717883066590,-0.0006761896655942262,-0.019412572111832234,-0.0009972863786794537,0.20827462997750923,-9.67247605511121,1.0864883423548932
8717884066590,0.0010239185194626209,0.008762651710280796,0.0013222394231369857,0.1983665439346216,-9.672468779185108,1.0490738098651335
8717885061790,0.0015132218689825287,0.0031042378869577322,0.004669918482672125,0.22214596222818556,-9.662567700145459,1.0303335165132597
8717886056990,-0.0035275703742163192,-0.002976421492622963,-0.0031350949027097144,0.22710000520008888,-9.653644177994451,1.0401841976744175
8717887047490,0.0016468962069415161,0.006515274755296431,-0.0005770327951905418,0.1983665439346216,-9.662550237914155,1.0490827700408532
8717888047490,-0.0007965155236798974,-0.017149327594403116,-0.0023616850607524323,0.18449521178302625,-9.67741833646578,1.0727289889167364
8717889042690,0.0014156806166563465,0.015022259977191574,0.0021164586438884216,0.18944925475492957,-9.686350080542665,1.0727136944145432
8717890037890,-0.0015351044152840023,-0.01065082394736281,0.001323462853501909,0.19440329772683296,-9.672465868806007,1.0677941471437113
8717891028390,0.001979208174023056,-0.012402091951924155,-0.001459636563784859,0.20827462997750923,-9.64867061004124,1.062870546963258
8717892028390,-0.0007128382394535121,0.018272421966104985,0.004905488622802861,0.22710000520008888,-9.634797530609632,1.067780485675366
8717893023590,-0.0013044959900004541,-0.019423956963113654,0.0015139801461231507,0.22710000520008888,-9.648684434309457,1.0589031147923167
8717894018790,-0.0014969585977446876,0.005498543556010017,0.0040681406874063224,0.24196216374100432,-9.662582252019273,1.0401544458592253
8717895009290,-0.0011125779246521188,0.008639200858650942,0.0023317468587397572,0.237008120769101,-9.67249715532721,1.077581705359955
8717896009290,0.00035718056856482924,-0.007513262120687838,-0.000794010572814691,0.20827462997750923,-9.696282446081833,1.0825269919156786
8717897004490,-0.004130146424980057,0.007907795680123689,0.00045401385334802903,0.1983665439346216,-9.68635662888478,1.0776255461506297
8717897999690,0.0005960528705901344,-0.01279627637723765,0.002807936172822263,0.2033205870056059,-9.686360266847867,1.0825431811535797
8717898990090,-0.0014800745225296563,0.012662216141511036,0.00010179500694413191,0.18449521178302625,-9.672458592879979,1.0589437794855547
8717899990090,-0.000256585189206608,-0.0013410587712257976,-0.006396275536204955,0.18944925475492957,-9.658575327043973,1.0402346589212945
8717900985390,-0.0022899457800181185,-0.011026863843601416,0.0018251115226474565,0.21322867294941256,-9.662561151803272,1.0539859470179374
8717901980590,-0.0010841905943118632,0.020657085865187344,0.004420982508110105,0.1983665439346216,-9.67742852277091,1.072708747525365
8717902970990,-0.001180303458323425,-0.02003803444620321,-0.0008745192331061301,0.2033205870056059,-9.667513619463044,1.0776353427040346
8717903970990,-0.0006409795860074603,-0.0044945596556837004,-0.002276032189383328,0.2033205870056059,-9.653626715763219,1.0914374603419854
8717904966290,-0.002601527732530041,0.016682385354727353,-0.0011220895796877962,0.18944925475492957,-9.672462230842992,1.0776511044349428
8717905961490,-0.0001697183370498092,-0.017793503926373477,0.0005178169151002473,0.21322867294941256,-9.677439436660027,1.0628373321096258
8717906951890,-0.0021231514168724907,0.0064054896947593545,-0.001068041389889373,0.21322867294941256,-9.667520895389075,1.0628462922853454
8717907951890,-0.0007678197582582594,-0.004993977541015965,-0.0025299812628800616,0.20827462997750923,-9.677435798697012,1.0726942894008573
8717908947190,0.0005195053979144089,0.008008508437422138,0.002071483061562623,0.2181827160203969,-9.672483331037313,1.0825340399220138
8717909942390,-0.0032706565679762687,-0.0006195794732011678,0.001146147072118812,0.2181827160203969,-9.667524533352163,1.072688791452069
8717910932790,0.004733619837288306,-0.016688549380124124,0.0016394582447830852,0.22214596222818556,-9.677445985002214,1.0539594939977714
8717911932790,-9.2488057847364e-05,0.014930477124269932,-0.003149272940602672,0.22214596222818556,-9.672486241416411,1.0628288002954034
8717912928090,0.0012412293479990896,-0.0056347385031238,-0.0011603605510553767,0.2181827160203969,-9.677443074623115,1.082529559406902
8717913923290,-0.0038049649476667047,-0.014045813272354702,0.0049459924610653384,0.1983665439346216,-9.67742852277091,1.077633611590641
8717914913690,0.002310695005737313,0.02155644984038147,-0.001856877850564128,0.1745870962140142,-9.672451316932193,1.0678230634356676
8717915913690,-0.0031722000148306324,-0.012134664799692291,-0.0013164684120412148,0.18449521178302625,-9.662540051609026,1.0589527396612741
8717916908990,0.00013247668214142957,0.003754355768266389,0.0011654283383792288,0.2320540481719922,-9.658606613543423,1.0588869255544158
8717917904190,-0.0016048096121382529,0.013073013699833533,-0.006294013425603944,0.22710000520008888,-9.653644177994451,1.0588986342771152
8717918894590,0.0024904062794572756,-0.008784325948079312,0.0011982892819122955,0.20827462997750923,-9.634783706341414,1.0441685380522179
8717919894590,0.0007820671985048037,0.012773072448264332,0.0013502810169549176,0.20827462997750923,-9.614944731799817,1.0353217517391968
8717920889790,-0.0023044191335370376,-0.017145556241695618,-0.002106071027086408,0.19440329772683296,-9.648660423736038,1.0441762343432044
8717921884990,-0.0027351946623469696,0.0132794601300978,0.0026192718294342733,0.2181827160203969,-9.667524533352163,1.0490493732767259
8717922875490,-0.001379574990844113,0.0019971823034005687,0.0026637735515833948,0.237008120769101,-9.648691710257241,1.049038928395674
8717923875490,0.0012110593968619274,-0.018411852638449182,-0.0018745844641035177,0.20827462997750923,-9.643710866455436,1.0727247557074198
8717924870690,0.001933723110316173,0.02156111055738852,-0.0024830360448782497,0.18449521178302625,-9.648653147810009,1.0678301105444132
8717925865890,-0.000522740078369493,-0.007650444187774674,0.0019681157841946045,0.17954116871204195,-9.677414698502693,1.0628864897500125
8717926856390,-0.0010448799505371883,-0.015900891379904834,-0.0013486593098999064,0.18944925475492957,-9.677421974428794,1.067796895690781
8717927856390,5.619618545943828e-05,0.02465672652980927,0.0055739240815190945,0.22214596222818556,-9.653640540031436,1.0589058633392967
8717928851590,-0.004192858477900361,-0.018654230374817667,2.2477058613860207e-05,0.237008120769101,-9.662578614056258,1.0677409373066244
8717929846790,0.00278462703302418,0.009393308315489263,-0.000560950706992496,0.2320540481719922,-9.667534719657292,1.0628188218316479
8717930837290,0.0007306256801333372,-0.008999204107433403,-0.004318445639317456,0.21322867294941256,-9.638754760733455,1.0589323172141463
8717931837290,0.005789462337117203,0.004724017364029623,0.003664000032074637,0.20827462997750923,-9.63875112277044,1.0825789643531738
8717932832490,-0.0018629668819049022,0.01015684449028087,0.00021139298054250605,0.21322867294941256,-9.662561151803272,1.0677756368657334
8717933827690,-0.0020693658211653814,-0.02403176821549089,-0.003282898557798759,0.20827462997750923,-9.65858915131219,1.0539967610050185
8717934818190,-0.00021431544172896295,0.0165455962185554,-0.000503026726978177,0.1983665439346216,-9.638743846844338,1.0776685584124053
8717935818190,0.002880405993029335,-0.003264341442108465,-0.0002709867037095316,0.2181827160203969,-9.638758398696543,1.0776396421633898
8717936813390,0.002599201039703316,-0.015928144226041458,0.001400271646586816,0.20827462997750923,-9.653630353726234,1.0589261047308127
8717937808590,-0.0013319265269228914,0.022191269424303002,-0.0010885075587681913,0.18449521178302625,-9.653612891495003,1.0776753582582617
8717938799090,0.001847904985702949,-0.014805329227170348,0.002790403497359671,0.18449521178302625,-9.667499795194828,1.0914523856951535
8717939799090,0.0009955283843403589,-0.0032579373065807354,-0.00026513357221451435,0.1983665439346216,-9.653623077800132,1.0678053886378402
8717940794290,0.0018949779382566659,0.005153706998415823,-0.0038492942134093033,0.2033205870056059,-9.64370722849242,1.0678071206058277
8717941789490,-0.002172567782213296,-0.014533632921249835,0.0014244705995787805,0.18944925475492957,-9.658575327043973,1.072738785470286
8717942779890,0.0006605601690341141,0.014537148218622328,-0.00039392301121999327,0.19440329772683296,-9.672465868806007,1.0727190113074851
8717943779890,-0.0004207325078921286,-0.017660591015024613,-0.0007352083942575162,0.18449521178302625,-9.686346442579651,1.0825706516072773
8717944775190,0.001645128305758586,0.005770239360428822,-0.0018368019153924445,0.19440329772683296,-9.682385356076807,1.082559778407724
8717945770390,-0.00463279354770524,0.007896659864558807,0.002839424405357405,0.2033205870056059,-9.662553875877242,1.0540004051423004
8717946760790,-0.0018139282997928939,-0.022298716408970895,0.0004922208070098624,0.19440329772683296,-9.658578965006988,1.0678066922443306
8717947760790,0.001416891236266678,0.015549820005519625,-0.002773298500140641,0.19440329772683296,-9.662547327535055,1.0727279714832048
8717948756090,0.00048608355247840244,-0.006144865262215988,0.0009714912365754004,0.21322867294941256,-9.662561151803272,1.0776253650947833
8717949751290,-0.0016702204841328883,-0.014651852220776328,-0.00020899728239693986,0.2320540481719922,-9.653647815957466,1.0776059592265035
8717950741690,0.0009092422503029652,0.013434966470049235,-0.005295535635289441,0.22214596222818556,-9.638761309075642,1.0776338588963816
8717951741690,-0.0005336783394179114,-0.012279745485207837,0.0006819376151861126,0.18944925475492957,-9.648656785773023,1.091462182248703
8717952736990,0.003168088593535961,0.012127647060556801,0.00334605959551064,0.1983665439346216,-9.667509981499958,1.0776425717663607
8717953732190,0.0018624134003282864,-0.008652836120035309,0.0004482975558579797,0.24196216374100432,-9.691347440675045,1.0627828583877161
8717954722590,-0.005146636493663193,0.0031681004989156866,-0.002962812761460418,0.24196216374100432,-9.691347440675045,1.0489931684414227
8717955722590,-0.002357611095468147,0.013544325189298309,-0.0002659075442610617,0.1983665439346216,-9.638743846844338,1.0727436943471291
8717956717890,0.00019719754246886548,-0.022056977933658933,0.0008640788798471239,0.19440329772683296,-9.638740936465238,1.1013136423473873
8717957713090,0.0023026742578151575,0.018140930165336612,0.004142477503906582,0.20827462997750923,-9.63875112277044,1.0865188086615454
8717958703490,0.0009996670336571319,-0.0015064561854085806,0.00024865634515699054,0.18944925475492957,-9.624850394802397,1.091483688379546
8717959703490,-0.0034330092415138,-0.016168389056409153,0.003299284401197339,0.2033205870056059,-9.658585513349175,1.096357844746744
8717960698690,0.0001765578015286446,0.022427956895178444,0.000539568496041286,0.2181827160203969,-9.677443074623115,1.0864694037152736
8717961693890,-0.0030379847242148934,-0.008522377848647445,0.002597285700624532,0.19440329772683296,-9.643700680150234,1.082594725229488
8717962684390,-0.0007669470257388525,-0.004632275442458953,0.00010735552232493412,0.17954116871204195,-9.634762606147095,1.0727747488710426
8717963684390,-0.0008612447974151501,0.008653894469391736,-0.000554746131848504,0.1983665439346216,-9.648663334115138,1.0727347333168156
8717964679590,-0.0006572713225677243,-0.01140695787075155,0.001566551453233497,0.2181827160203969,-9.667524533352163,1.0677639272882955
8717965674790,0.0012829277909300624,0.012020921459174001,0.0010926771738403946,0.21322867294941256,-9.667520895389075,1.0677711563506216
8717966665290,-0.0021696152082167084,-0.013286050689519067,0.002436715530768286,0.2181827160203969,-9.677443074623115,1.0726798312763497
8717967665290,-0.0011279226039207719,0.0021601602221274566,-0.004487703890972846,0.24196216374100432,-9.691347440675045,1.0627828583877161
8717968660490,0.00039089963514936984,0.006766762778946334,5.5902039195807225e-05,0.22214596222818556,-9.658599337617392,1.0539765196135027
8717969655690,-0.0004287224060262563,-0.02104636775448703,-0.00025634685931257787,0.2181827160203969,-9.648677885967343,1.0628560888387504
8717970646190,-0.0013490994049128215,0.014909059378173203,0.0016223285812192942,0.21322867294941256,-9.677439436660027,1.077611924403952
8717971646190,-0.002005780341452314,0.00289263300859343,-0.0003394906612990368,0.1983665439346216,-9.67742852277091,1.0825584756559175
8717972641390,0.0007208496602497758,-0.013147587862294603,-0.0018372433334359795,0.19440329772683296,-9.67742561239181,1.0776393948576495
8717973636590,-0.003118666038775899,0.010535657691617663,0.0004687823239716187,0.1983665439346216,-9.672468779185108,1.0589235380941833
8717974627090,-0.000656665662311315,-0.0111428399165944,-0.0009410602018908739,0.2033205870056059,-9.638747484807425,1.0441721830441835
8717975627090,-0.0006060695363782906,0.010294095882292534,-0.002802835442069351,0.2033205870056059,-9.667513619463044,1.0539959246271886
8717976622290,-0.0027724530237303348,-0.002494009837271778,-0.0001228499638306433,0.18944925475492957,-9.696268621813616,1.053990180227254
8717977617490,0.0013500089828685832,-0.012794106183936966,0.0019273342702730203,0.17062387953234998,-9.677408150160579,1.0825989584388047
8717978607990,-0.0007060056745265084,0.02118201300889057,-0.00021901363499337093,0.18449521178302625,-9.648653147810009,1.0776798387734632
8717979607990,0.000701622179110635,-0.02129134393128312,-0.00201808335451026,0.1983665439346216,-9.658581875386089,1.0628760449120462
8717980603190,-0.0016264428961296658,0.003889013900334512,0.0005444145669068539,0.21322867294941256,-9.686367542773898,1.0864685673375882
8717981598390,0.0005251588946293146,0.01042095856600269,-0.0038092216344149626,0.2033205870056059,-9.696278808118818,1.077609356912584
8717982588890,-0.0008119057811067712,-0.02367230860927918,-0.0010258611596317378,0.18449521178302625,-9.686346442579651,1.0727209234767248
8717983588890,0.001659607978266935,0.01189501927101383,0.0009651885823834354,0.1983665439346216,-9.682388266455908,1.082553995140716
8717984584090,-0.003532907723580047,-0.005243970915366138,-0.0008920455638090001,0.22214596222818556,-9.653640540031436,1.0825452814161427
8717985579290,7.419134947879956e-06,0.004014168816568693,-0.00046353255954479505,0.21322867294941256,-9.648674248004255,1.0727130461301264
8717986569690,-0.0032706502577447387,-0.000613495671181491,1.6955296062079288e-05,0.19440329772683296,-9.68635371850568,1.0727064653523617
8717987569690,0.0016051753276269693,-0.011162016507698033,0.0011848344313033022,0.1983665439346216,-9.672468779185108,1.072713228040477
8717988564990,-0.0015971477806848312,0.01630239810423679,-0.0010023012131705799,0.2033205870056059,-9.658585513349175,1.086508116517694
8717989560190,-0.0002761428472990114,-0.009643238015314266,-0.00043014473826739116,0.2033205870056059,-9.648666972078225,1.0825772323850418
8717990550590,-0.0027650512574295787,0.0006445484001311105,-0.0012307440452164462,0.20827462997750923,-9.643710866455436,1.0589350657611263
8717991550590,0.00040271693421507597,0.011763847971632282,0.0028502253040945877,0.2181827160203969,-9.624871494996718,1.0628775949695932
8717992545890,-0.0035556920303070334,-0.014898072506038463,0.00017154932823963166,0.22710000520008888,-9.634797530609632,1.06285562161009
8717993541090,0.0011362610886765153,0.0031203902359189933,0.00191084190055391,0.22214596222818556,-9.662567700145459,1.053972934688603
8717994531490,-0.004260829432405421,0.00578219391324844,-0.0003128729364047216,0.2181827160203969,-9.64371814238154,1.0727102975829121
8717995531490,0.003867341182693128,-0.011028856634990904,-0.0017070502020888737,0.22710000520008888,-9.643724690723653,1.0963365859216962
8717996526790,-0.002108362617374825,0.012668406721471077,-0.0006490486346114269,0.22214596222818556,-9.638761309075642,1.0727089948311055
8717997521990,-0.002043638753995774,-0.013139547087353542,-0.0015777271125664446,0.21322867294941256,-9.63478734430443,1.0678007270668821
8717998512390,-0.00010520824281557307,0.009542620871805248,-0.00318590514960419,0.22214596222818556,-9.643721052760638,1.0776293783811801
8717999512390,-0.00026993276967621996,-0.007013988298859675,-3.585720385802446e-05,0.2181827160203969,-9.648677885967343,1.0727058170678003
8718000507690,-0.0026541847694783825,-0.00562217926772797,-0.001022798516953838,0.19440329772683296,-9.643700680150234,1.082594725229488
8718001502890,-0.0024714307537640054,0.018562796453490737,-0.0013606326292005546,0.17954116871204195,-9.634762606147095,1.0727747488710426
8718002493290,-0.0017982457315400798,-0.015653817040763126,-0.0002154223670593593,0.17954116871204195,-9.6298028624621,1.0540646753746745
8718003493290,-0.00037282538535181927,0.002622968512448816,0.002163048305037947,0.1983665439346216,-9.629816686730317,1.0589620689862531
8718004488490,0.000285640170375967,0.015400650044587454,0.0023734578038457892,0.2181827160203969,-9.64371814238154,1.0490708794075687
8718005483690,-0.0020658139014070607,-0.02252615363917216,-0.0036490729157087507,0.2033205870056059,-9.667513619463044,1.0589207886924648
8718006474190,-0.0005957341312747789,0.014661983038119268,0.0004890912248185532,0.18449521178302625,-9.667499795194828,1.0776628131577322
8718007474190,-0.0046629494763410755,-0.004866934809760273,-0.00038411478932636476,0.20827462997750923,-9.677435798697012,1.0628445611718074
8718008469390,0.001264000333124994,0.00400651950436532,0.0001598940738023859,0.2181827160203969,-9.672483331037313,1.0628345835624116
8718009464590,-0.002890999069823672,0.0005257580950963278,-0.002360397840165591,0.2320540481719922,-9.638768585001673,1.0628448084776925
8718010455090,0.00010675242164874879,-0.007135160546010235,-0.0010416060565375303,0.22214596222818556,-9.667527443731261,1.0490435900097175
8718011455090,-0.0009608851211839456,0.019667108936398878,0.0020299277766518816,0.2181827160203969,-9.672483331037313,1.049044893616118
8718012450290,-0.001910013896888105,-0.009777182449922803,0.002208857107479506,0.2320540481719922,-9.648688072272472,1.0588958857301352
8718013445490,0.0012281979236385583,-0.01116276361444916,0.001562402148313431,0.21322867294941256,-9.648674248004255,1.0677881819663526
8718014435990,-0.0009493454067021935,0.024556472317993204,0.0015612891759400668,0.18449521178302625,-9.643693404224205,1.0589697652770054
8718015435990,-0.006331977515905864,-0.019867515562255862,-0.006001765287981922,0.18449521178302625,-9.662540051609026,1.067817565443794
8718016431190,-0.0001220979183712608,0.002373544169032467,0.0017841669695740567,0.20827462997750923,-9.686363904810882,1.0588965340145522
8718017426390,-0.0019886319942637827,0.010151187628927687,0.0013409754681443196,0.21322867294941256,-9.677439436660027,1.0303330881517625
8718018416890,0.0009736357363343013,-0.012532087293936279,4.822216168418915e-05,0.22214596222818556,-9.696292632387035,1.0440927401529907
8718019416890,0.0004039079217555792,0.012272480513977523,0.0014735095527197341,0.2320540481719922,-9.682413004613242,1.0490156911944333
8718020412090,-0.005947944344770571,-0.016902179886185614,0.0015454561108647754,0.22214596222818556,-9.658599337617392,1.0539765196135027
8718021407290,-0.0028629082637581993,0.012417666072149447,-0.0001465481518980842,0.21322867294941256,-9.677439436660027,1.0628373321096258
8718022397690,0.0004866885115979141,-0.005881423286121113,-0.001410654654501266,0.2320540481719922,-9.696299908313065,1.0588528743229535
8718023397690,-0.0016486390755180323,-0.0055178710911998954,0.00223704169132946,0.24196216374100432,-9.677460536876028,1.0539305777058154
8718024392990,-0.0031112460431524224,0.013691791258400497,-0.0039012216233360432,0.22214596222818556,-9.662567700145459,1.0825372168307252
8718025388190,-0.0005467048558207115,-0.017803038750638073,0.0025264400665935965,0.21322867294941256,-9.672479693074225,1.0776164049190637
8718026378590,-0.004914258865450277,-0.00485864516604222,-0.0017634577760479056,0.22214596222818556,-9.667527443731261,1.062833279956011
8718027378590,-0.0010936308350116336,0.016672530201366394,-0.00024851183604841873,0.22214596222818556,-9.70125237607203,1.0726525418784087
8718028373890,-0.001300043292246763,-0.017529601165746977,-0.0012334879884900443,0.2033205870056059,-9.701238551803813,1.0539654583205365
8718029369090,2.1591766129643725e-05,0.010002832028358673,0.004345058136725987,0.2181827160203969,-9.66256478976636,1.0441289897265615
8718030359490,-0.0020315137167246826,-0.008005671020492752,-0.0009154701235956314,0.237008120769101,-9.66753835764206,1.0440970387146669
8718031359490,0.0018775008320078678,-0.002261912225109519,0.0003662789930447066,0.20827462997750923,-9.68239554238201,1.058900118939362
8718032354790,-0.0017396660177050188,0.009162811695025759,-0.0014268672657534293,0.19440329772683296,-9.68635371850568,1.0628567371233117
8718033349990,-0.0016740724295907063,-0.0162868219125849,0.0009091199469162649,0.2033205870056059,-9.686360266847867,1.0726934530230274
8718034340390,0.003804379709612884,0.015519400822931545,0.0013596580480743463,0.2181827160203969,-9.682402818308113,1.0776002148264243
8718035340390,-0.004292800930542134,-0.007772398856707247,0.0037354910309694896,0.2181827160203969,-9.691329978422132,1.0726672861757305
8718036335690,-0.0006557887274691934,-0.010777083856370853,0.0009434823875692812,0.21322867294941256,-9.677439436660027,1.0864766327775996
8718037330890,0.0014272217334096535,0.019912975312747314,0.0013968889165716413,0.2033205870056059,-9.658585513349175,1.086508116517694
8718038321290,-0.0015487183623815936,-0.016420659735167955,0.002413466693302991,0.1983665439346216,-9.662550237914155,1.0727221882161964
8718039321290,-0.004902710040685274,3.950402581769097e-05,-0.0038631513223289417,0.18449521178302625,-9.662540051609026,1.067817565443794
8718040316590,0.0013914452659912879,0.004768703384940849,-0.0018428367805454538,0.19440329772683296,-9.672465868806007,1.0776438753727613
8718041311790,0.00023269291938325058,-0.007023807806413051,0.0014681713301653966,0.21322867294941256,-9.672479693074225,1.0628418126247376
8718042302190,0.0030495392490155603,0.015144714789610013,0.0016103751032617636,0.2033205870056059,-9.662553875877242,1.049075540978527
8718043302190,-0.0016737688982061526,-0.01615408690624291,-0.0004701518450980842,0.18944925475492957,-9.653616529458017,1.0402391385818126
8718044297390,0.00228171042878568,0.009282558618598322,-0.0029440914148730086,0.1745870962140142,-9.672451316932193,1.0441836453588218
8718045292590,-0.0027662366358737677,0.00014132368336562673,-0.0008577546069684556,0.18944925475492957,-9.686350080542665,1.0628639661854933
8718046283090,-0.0016782293084668543,-0.018055878463376158,0.003657439894785088,0.2033205870056059,-9.691319064533014,1.0776138374276958
8718047283090,0.0030513274744145887,0.0159093498415979,-0.0007683633606268055,0.2033205870056059,-9.696278808118818,1.0726844928473078
8718048278290,0.0014893005622613146,-0.007006445930397731,-0.0025506356089311745,0.18944925475492957,-9.66254368957204,1.0678103363816125
8718049273490,0.0013547490856186898,-0.010782562978603655,0.0006863074179242184,0.1745870962140142,-9.648645871862223,1.0826191610063323
8718050263990,-0.0009655894571954215,0.017690044321631078,-0.0031277994125882983,0.1983665439346216,-9.643703590529334,1.0776640778972038
8718051263990,-4.2004233006820435e-05,-0.016931709872296013,0.003283637296362214,0.22710000520008888,-9.667531081694277,1.0864653515618032
8718052259190,-0.0013597278288399106,0.010418574986180082,-0.0021723134699271696,0.2181827160203969,-9.672483331037313,1.0864738842303854
8718053254390,0.0017284717910006787,-0.012160779244930506,0.00042483424361168965,0.20827462997750923,-9.634783706341414,1.0628830920637875
8718054244890,0.0015108672470001694,0.00211333965878939,0.0025301846105422526,0.19440329772683296,-9.648660423736038,1.0678156524200502
8718055244890,0.005045870776352207,0.00911812551022046,0.0025669658105179245,0.18944925475492957,-9.686350080542665,1.0628639661854933
8718056240090,0.0009570741253288675,-0.019544772564343088,-0.0007522793722770185,0.2033205870056059,-9.691319064533014,1.0726889733624196
8718057235290,0.003677544042978204,0.015024714686784603,0.00022744832569298289,0.2033205870056059,-9.682391904418994,1.0825467660783896
8718058225790,0.003890414301186763,-0.0012562137756834332,-0.0015151353270194661,0.2033205870056059,-9.677432160733996,1.067776654299265
8718059225790,0.001462360774435541,-0.018428254020280727,0.0010103476899418155,0.21322867294941256,-9.672479693074225,1.0628418126247376
8718060220990,-0.0007160922414205916,0.01689413266546374,0.004896117589248922,0.19440329772683296,-9.658578965006988,1.0825812845386567
8718061216190,-0.0007829247141005365,-0.011401799083193779,0.000688681413393363,0.18449521178302625,-9.634766244110184,1.0865570922476404
8718062206690,-0.0018895933224312182,-0.001122764902010659,0.0006365840918511126,0.2033205870056059,-9.634780068378399,1.0678151851912452
8718063206690,-0.002754989239082059,0.004908765803611152,-0.0019545737537508697,0.18944925475492957,-9.624850394802397,1.0629195235477986
8718064201890,0.003116644980508893,-0.009646653721560539,-0.0019462695426568136,0.17062387953234998,-9.658561502775758,1.0678413917602096
8718065197090,-0.0024847516910280875,0.012915554095467956,0.00023208606709791864,0.1983665439346216,-9.672468779185108,1.0589235380941833
8718066187490,-0.0022914143523792303,-0.011643218297277429,-6.11345922698148e-05,0.2181827160203969,-9.648677885967343,1.0539912630562305
8718067187490,-0.0018721358482528105,0.006273926834991082,-6.594762157607643e-05,0.18449521178302625,-9.662540051609026,1.0727424296075678
8718068182790,0.002646548777025918,0.004135911902629567,-0.0014746010283775458,0.1983665439346216,-9.662550237914155,1.0589324982699029
8718069177990,-0.0017997107982166962,-0.01626679160412777,-0.0027289973022151565,0.2181827160203969,-9.672483331037313,1.049044893616118
8718070168390,-0.0010877172731418184,0.01917580649911045,0.0002703893603027167,0.20827462997750923,-9.677435798697012,1.0677694252370835
8718071168390,-0.0036718829500726863,-0.010886728560288703,-5.173082861173201e-05,0.18449521178302625,-9.662540051609026,1.0589527396612741
8718072163690,-0.0017864137038664041,-0.010642534303986314,-5.588013353179794e-05,0.17954116871204195,-9.648649509846921,1.0402580772215217
8718073158890,0.00014639977397798692,0.00966233619067574,-0.002307573293177702,0.18944925475492957,-9.638737298502223,1.062906978447269
8718074149290,0.002114044047510198,-0.008510815426864434,-0.00281374101342324,0.19440329772683296,-9.667507071120857,1.062873762739043
8718075149290,-0.0028569834834619046,0.01493175811858826,-0.001635099079256088,0.20827462997750923,-9.677435798697012,1.040190162851866
8718076144590,0.00010378863372211781,-0.008393556621891785,-4.639885106883998e-05,0.20827462997750923,-9.629823962656419,1.0441730185674194
8718077139790,0.0006108683222833967,-0.006507668374530817,-0.0015407701801870791,0.1745870962140142,-9.629799224477402,1.0678615943277372
8718078130190,-0.003363758339129972,0.013179956732173877,-0.0017709307694991354,0.19440329772683296,-9.643700680150234,1.077669861164212
8718079130190,-0.004198476922266749,-0.02103288350482852,-0.00037010646074286035,0.2320540481719922,-9.653647815957466,1.0864706676001512
8718080125490,0.003408460824841966,0.007490732097183213,0.0033137584471820934,0.22214596222818556,-9.691332888801231,1.0864510753476462
8718081120690,-0.0016101806073197224,0.010773021036246104,0.001971393114666249,0.21322867294941256,-9.696286084044848,1.082519762853497
8718082111090,-0.0038200152169573804,-0.0204009094245829,-0.001621675066751657,0.1983665439346216,-9.68635662888478,1.0727006820853535
8718083111090,0.0008080865767386893,0.02378721203159489,0.0036836328888024007,0.20827462997750923,-9.691322702496029,1.096321044968212
8718084106390,-0.00203624680810692,-0.01001045444628489,-0.0009291007109786561,0.21322867294941256,-9.706205571315646,1.1012252384258812
8718085101590,0.0020182323376734066,0.004114387379047832,0.002918651955891966,0.18944925475492957,-9.667503433157842,1.0825804481608268
8718086091990,-0.002767139512785081,-0.000249443568947523,0.0018999367759447525,0.17954116871204195,-9.634762606147095,1.0589850589247491
8718087091990,0.00048076303466115626,-0.008396189406078228,0.00020336204985349927,0.2181827160203969,-9.648677885967343,1.0677809529040265
8718088087190,-0.0013411031967826958,0.018300919820497703,1.4275068790870794e-05,0.2033205870056059,-9.64370722849242,1.091446421372299
8718089082390,-5.5889458951027295e-05,-0.022803185571553933,-1.8512919943535454e-05,0.18944925475492957,-9.667503433157842,1.091445156632972
8718090072890,-0.000113516391712698,0.0060099154912370695,0.0013070092353059575,0.2181827160203969,-9.672483331037313,1.0628345835624116
8718091072890,0.0010233352955897872,0.008520165056820309,-0.0001850538731282582,0.2181827160203969,-9.653637629652337,1.053986782541029
8718092068090,-0.0013065576000233416,-0.020292260863132704,-0.0001230381607672873,0.2033205870056059,-9.658585513349175,1.086508116517694
8718093063290,-0.00021518677623379254,0.016185244272358908,-0.003391295152918721,0.19440329772683296,-9.662547327535055,1.0914424080859022
8718094053790,-0.00013424189083394156,-0.0027785852089721105,0.004509485396196999,0.2033205870056059,-9.653626715763219,1.062873295510238
8718095053790,-0.0006622623714327112,-0.013500537725593214,-0.005223082607471671,0.20827462997750923,-9.643710866455436,1.0540102016958501
8718096048990,1.599365922920308e-05,0.007643784166156936,0.0003139675733074901,0.19440329772683296,-9.662547327535055,1.0490885533078613
8718097044190,-0.0028020257282549968,-0.015015117756268858,-0.0018390961626854729,0.20827462997750923,-9.67247605511121,1.0628490416869194
8718098034690,0.0034262155246692714,0.015014076942510453,0.002361146831118958,0.20827462997750923,-9.65858915131219,1.0825610431471406
8718099034690,-0.0011601913274680445,-0.011521085554292224,-0.00018926032139899,0.2033205870056059,-9.638747484807425,1.0914509018875005
8718100029890,0.0007412541040615478,-0.004508719714358723,-0.0005238037889162147,0.2033205870056059,-9.634780068378399,1.1062290782520425
8718101025090,-0.002223975518308781,0.016917507380895598,0.0015132246662767227,0.2033205870056059,-9.662553875877242,1.1150688138334137
8718102015590,-0.003179308766800881,-0.015150627702228074,0.0002941404384184266,0.21322867294941256,-9.658592789275206,1.0963433866223806
8718103015590,-0.0013760062350423137,0.0035190240636849904,-0.0007135794193727676,0.21322867294941256,-9.648674248004255,1.0776379101954026
8718104010790,0.0014109671571067225,0.013036403936602305,-0.001410213236457731,0.1983665439346216,-9.653623077800132,1.0540156987900442
8718105005990,-0.0011847442367503933,-0.021920898617052022,-0.0002599689869313077,0.19440329772683296,-9.662547327535055,1.058938281536911
8718105996490,-0.001979155303200357,0.014170890444219625,-0.0005137501441396211,0.1983665439346216,-9.667509981499958,1.0865072801400084
8718106996490,-0.003403119688500499,-0.0035017044529716407,0.0012524093785549794,0.18944925475492957,-9.658575327043973,1.0825885136008382
8718107991690,-0.0011285394823675673,0.0018852266189739314,2.7359988914805317e-05,0.19440329772683296,-9.667507071120857,1.0727234909680927
8718108986890,-0.0010037661292564143,0.0015109318773518995,-0.0003519833402249135,0.18944925475492957,-9.672462230842992,1.0628765121406167
8718109977290,-0.003919950156015853,-0.009511641243870394,0.0007112153070920951,0.18944925475492957,-9.672462230842992,1.0441619581290473
8718110977290,0.001428102883832192,0.0202827909528972,0.0025286364450990938,0.21322867294941256,-9.672479693074225,1.053976986842218
8718111972590,-0.0024333391475005496,-0.01853085435935923,-0.0007349284479944026,0.22214596222818556,-9.658599337617392,1.0677662094612987
8718112967790,0.0003761101255230553,0.0005031659661659735,-0.00023762517867776875,0.1983665439346216,-9.662550237914155,1.0628724599871466
8718113958190,-0.003360798056888958,0.014434972916662486,-0.0021388089539840782,0.2181827160203969,-9.672483331037313,1.0588946218451678
8718114958190,0.0008370415782357338,-0.017158257736091503,-0.0017394288541452666,0.2320540481719922,-9.667534719657292,1.0441042678200783
8718115953490,-0.0016178466455956612,0.007539580762387636,-0.002567524312735662,0.20827462997750923,-9.64867061004124,1.054005721180738
8718116948690,0.003515210804717804,-0.0005051656043710898,-0.001132455925736063,0.19440329772683296,-9.662547327535055,1.082577699613757
8718117939090,-0.0030477348065285044,-0.012645752318666926,0.00043625452304664643,0.19440329772683296,-9.682385356076807,1.1012742150104218
8718118939090,0.0018978828396704773,0.006355324720205724,0.005694623891126061,0.20827462997750923,-9.653630353726234,1.10620482357413
8718119934390,-0.0005360357704459872,-0.013273349531791583,-0.0009559329125841632,0.20827462997750923,-9.677435798697012,1.0864838618397812
8718120929590,0.0010535101501893667,0.02130200913457842,-0.0003490904217357195,0.21322867294941256,-9.672479693074225,1.0776164049190637
8718121919990,-0.0017988464793417605,-0.01591320124394039,0.0014139289526801328,0.2033205870056059,-9.648666972078225,1.0825772323850418
8718122919990,-0.00038967510485711423,-0.004507581146378448,-1.8428753955240275e-05,0.19440329772683296,-9.682385356076807,1.0628603220481219
8718123915290,-9.45868304952505e-05,0.014026345381854904,0.0018633947420830166,0.20827462997750923,-9.68239554238201,1.053975254874086
8718124910490,-0.0010493242346480908,-0.01778713544052423,-0.0001067803438591702,0.21322867294941256,-9.658592789275206,1.058914396008113
8718125900890,0.0013893675276898318,0.0038848510873371045,-0.000594142520472441,0.17954116871204195,-9.653609253531915,1.0540431692437418
8718126900890,-0.004111224585024716,0.015916786103207736,0.0023905227394332602,0.18449521178302625,-9.67741833646578,1.0628792606876865
8718127896190,0.0017181160481956857,-0.016548271767723957,0.0007714144193588113,0.18944925475492957,-9.677421974428794,1.077646623919831
8718128891390,0.0008976688814861505,0.008513156241164159,0.001195459740766354,0.19440329772683296,-9.672465868806007,1.0677941471437113
8718129881790,-0.0007628280127544929,-0.0028997236142783503,0.004134187321946179,0.237008120769101,-9.677456898913013,1.0864419332184907
8718130881790,-0.00012561759458563828,0.0008990208774334527,-0.0036210843457900196,0.2320540481719922,-9.658606613543423,1.0776014795659854
8718131876990,-0.000744757857955569,0.004767849668754341,-0.0003306140626747637,0.20827462997750923,-9.662557513840257,1.0914221666943862
8718132872190,-0.00015933876008500207,-0.013383030052384354,-0.004094599552335735,0.19440329772683296,-9.682385356076807,1.1012742150104218
8718133862690,0.0029306915807080555,0.018033101477061622,0.0005011669996893902,0.20827462997750923,-9.67247605511121,1.0776236339812455
8718134862690,-0.0024179580003563673,-0.012016659154207968,-0.0004396975039184874,0.22710000520008888,-9.658602975580408,1.0864734170018149
8718135857890,-0.00226184656007152,0.0008731559720604881,0.0025333717419062,0.2181827160203969,-9.648677885967343,1.0727058170678003
8718136853090,-0.002098596404416099,0.016807330591466815,-0.0013737300171816997,0.20827462997750923,-9.65858915131219,1.0677864508528145
8718137843590,-0.0013127599670334795,-0.022914075622815534,-0.0018974491051536426,0.19440329772683296,-9.662547327535055,1.067803107319431
8718138843590,0.0007690715323650215,0.007279522320517193,-0.0023257106509181444,0.1745870962140142,-9.66253277566124,1.0441926055345412
8718139838790,-0.0006267978400465697,0.001502891270375041,0.0009015036746399,0.18449521178302625,-9.65857168908096,1.040241887983476
8718140833990,0.00010587829135197922,-0.007498212696147824,-0.00342801130069806,0.1983665439346216,-9.658581875386089,1.0589360831948025
8718141824490,0.000779720280270433,0.011789606268309868,-0.0021695759837984593,0.18944925475492957,-9.658575327043973,1.0402346589212945
8718142824490,0.0010886441801783373,-0.017043276065172402,1.716313916324229e-05,0.19440329772683296,-9.672465868806007,1.025440175055296
8718143819690,-0.0009623663140086794,0.01903858687814272,0.0024020653142206886,0.20827462997750923,-9.65858915131219,1.0352823244023208
8718144814890,-0.0001371874534576139,-0.00401940765629466,0.002242582121922166,0.21322867294941256,-9.648674248004255,1.049073627954783
8718145805390,-0.0021734489238768133,-0.014903444849847024,0.00029272259440485653,0.21322867294941256,-9.672479693074225,1.0441272586131682
8718146805390,0.002320733194420891,0.025797687796669022,0.0016851288459119752,0.19440329772683296,-9.658578965006988,1.049092138232761
8718147800590,-0.003437718494238665,-0.018150189225380083,-0.0009801826656707121,0.1983665439346216,-9.658581875386089,1.0441614909004766
8718148795790,-0.0020188356044674154,-0.002658375356849235,0.00664910801569174,0.21322867294941256,-9.667520895389075,1.030342048327482
8718149786290,-0.00022023110724556962,0.014040291886926147,-0.0006455307322403383,0.22214596222818556,-9.653640540031436,1.0490561351102472
8718150786290,8.930405775247133e-05,-0.014523066473827957,-0.00197012908793434,0.21322867294941256,-9.667520895389075,1.0628462922853454
8718151781490,0.0014003050875991078,0.008513476404544876,0.0008175018140742013,0.19440329772683296,-9.653620167421032,1.0727360360686224
8718152776690,-0.0012799542991473898,-0.009034959651752519,0.0035921414372276647,0.2033205870056059,-9.653626715763219,1.0589333337929943
8718153767190,-0.0008716047425473446,0.004262347980605485,0.0005446290426243498,0.2033205870056059,-9.653626715763219,1.0352940331250204
8718154767190,0.005526031711195246,-0.0003975149898925931,0.0008696047584689148,0.2033205870056059,-9.648666972078225,1.0540129502429196
8718155762390,-0.0001679525435373582,-0.017050498269997497,0.002153983315177738,0.1983665439346216,-9.662550237914155,1.0490827700408532
8718156757590,-0.0015906874628188305,0.01901300648573199,0.007548113285827711,0.1983665439346216,-9.672468779185108,1.0589235380941833
8718157747990,-0.00140709098691451,-0.009660350855556155,0.0034628060263542293,0.18944925475492957,-9.66254368957204,1.0776600646106624
8718158747990,-0.0006492723141503448,-0.008012395321023554,-0.0005433650272806618,0.18944925475492957,-9.648656785773023,1.0628980174169556
8718159743290,0.0010443432962455885,0.01742112322310417,-0.0010028283904719164,0.20827462997750923,-9.65858915131219,1.0589216250702949
8718160738490,-0.0044429870992024854,-0.018147449665558736,-0.0008515951315983764,0.1983665439346216,-9.67742852277091,1.086498319964289
8718161728890,0.0011460160834442946,0.007248498456377574,0.0031936128431195284,0.19440329772683296,-9.672465868806007,1.0825687394380374
8718162728890,-1.1204787216779512e-05,-0.0038674963313786483,-0.0027755867367213463,0.1983665439346216,-9.653623077800132,1.0865198252405381
8718163724190,0.002519399270289475,0.0034976771117718394,0.0007799134775850237,0.20827462997750923,-9.65858915131219,1.0914257516192858
8718164719390,-0.004378518367786634,0.0091487942301691,0.0028471630955245308,0.2181827160203969,-9.653637629652337,1.0727013365525988
8718165709790,0.0005803976443104,-0.019414813602867533,-0.0013775855581569137,0.2033205870056059,-9.653626715763219,1.062873295510238
8718166709790,-0.00048782722442938017,0.007140915162211492,0.0009394494746362324,0.20827462997750923,-9.66751725742606,1.0589135596302832
8718167705090,-0.004774403097667005,0.0011532485298536427,-0.0013465588420267932,0.21322867294941256,-9.658592789275206,1.0727040859544068
8718168700290,-0.003558935515457281,-0.01626622223598476,-0.0017198081667114114,0.21322867294941256,-9.643714504418451,1.0589278366989447
8718169690690,0.003307054209659247,0.017760942913764483,0.004262266071169019,0.1983665439346216,-9.662550237914155,1.0727221882161964
8718170690690,-0.003787198328512116,-0.006510976799968812,0.0018604628561912171,0.17954116871204195,-9.67245495491689,1.0865302709330984
8718171685990,-0.0009091701452567354,-0.011647238685018352,-0.00019089265251827706,0.19440329772683296,-9.667507071120857,1.0677986268043191
8718172681190,0.0002871297768451721,0.01603728384121323,0.0004957307965866896,0.20827462997750923,-9.653630353726234,1.0628660664480565
8718173671590,-0.0007894257024048008,-0.014151616098467157,-0.0005847184826692602,0.21322867294941256,-9.638754760733455,1.0727220071604397
8718174671590,0.0015410477109299141,0.014900591659662503,0.0013624222513525137,0.17954116871204195,-9.653609253531915,1.0776825873205877
8718175666890,-0.0011672706316885337,-0.014508657378212518,-0.0038482135609429593,0.18449521178302625,-9.648653147810009,1.0678301105444132
8718176662090,0.00151502973497151,0.0038878040340788386,-0.001221861449708212,0.21322867294941256,-9.638754760733455,1.0727220071604397
8718177652490,-0.0017408612120663565,0.008650123284847669,0.0007026429695350424,0.22214596222818556,-9.662567700145459,1.0726874887001727
8718178652490,-0.001188610204708976,-0.02356938776932612,0.0033674634236449145,0.22710000520008888,-9.662571338108474,1.0677553954742174
8718179647690,-0.002611871551511313,0.01230638636353653,-0.0029084273798026024,0.2033205870056059,-9.653626715763219,1.0677981595755142
8718180642890,0.0020117306439707792,0.001363892579785024,0.0017707181127273536,0.18944925475492957,-9.638737298502223,1.0589670167300251
8718181633390,-0.001803571858215865,-0.017910548908884393,2.017455928190852e-05,0.19440329772683296,-9.629813776351217,1.0540429881879851
8718182633390,0.001311896241970794,0.024279265286845576,0.005065603111182796,0.20827462997750923,-9.64867061004124,1.0865098476312318
8718183628590,-0.0011616774282516328,-0.012154339459525067,0.0010611376648763625,0.1983665439346216,-9.662550237914155,1.0865117606551205
8718184623790,-0.00113028915399,0.0011577666548069979,-0.004494519197272649,0.18944925475492957,-9.672462230842992,1.0776511044349428
8718185614290,-0.0006315309314288073,-0.0005018921554170996,0.0008878730872568753,0.17954116871204195,-9.677414698502693,1.0628864897500125
8718186614290,0.0007495440231603985,-0.000993589865811939,-0.001754607907777117,0.1983665439346216,-9.682388266455908,1.0628545387811135
8718187609490,0.0022955998660499598,0.01515809209293699,-0.0003947361713948776,0.21322867294941256,-9.672479693074225,1.0726915408537876
8718188604690,-0.0003060015524175234,-0.02228018048508259,-0.003903763540603038,0.2033205870056059,-9.648666972078225,1.0727275042544895
8718189595190,-0.0005871476876656108,0.018303090015306923,-0.0008663267315127585,0.2181827160203969,-9.638758398696543,1.0677899139343399
8718190595190,0.0006413172650119627,0.0063785215333346315,0.002185483983634221,0.2320540481719922,-9.629841424887651,1.06285287306311
8718191590390,-0.0009281123248090356,-0.019675835279145487,0.0015111057000697274,0.20827462997750923,-9.63875112277044,1.0678043720588477
8718192585590,-0.0026050733420557096,0.01518285458150987,-0.0018851071985797603,0.20827462997750923,-9.662557513840257,1.0727077300916887
8718193576090,0.0010049945673414884,0.0007516296452427032,-0.00023787239676693623,0.2181827160203969,-9.648677885967343,1.0727058170678003
8718194576090,-0.002669271495759601,-0.01201242537866433,-0.0010662460070385766,0.1983665439346216,-9.648663334115138,1.0825844614473679
8718195571290,0.0010230366679048666,0.008392160093690988,0.00031595735753940646,0.19440329772683296,-9.658578965006988,1.0825812845386567
8718196566490,-0.004302524369652459,-0.01187008615927878,-0.003193239381166407,0.18449521178302625,-9.653612891495003,1.049111076017642
8718197556990,-0.000849107135421215,0.013799939944596697,-0.002150872682723631,0.1745870962140142,-9.672451316932193,1.0727479275994414
8718198556990,-0.0024058462846891617,-0.006895626673234283,0.0026064095038217773,0.1745870962140142,-9.66253277566124,1.0865464602140846
8718199552190,0.00238812272067678,0.0011201250999704204,0.00026225419084987406,0.20827462997750923,-9.65858915131219,1.0539967610050185
8718200547390,3.641002236882008e-05,0.016294143941692235,-0.0005055109713563415,0.24592540994879297,-9.65365800228435,1.0490214355512828
8718201537790,-0.0023165427706631006,-0.022278081253502707,-0.003019259751031617,0.22214596222818556,-9.638761309075642,1.049069576655762
8718202537790,-0.0003500508945419815,0.012267606409708538,0.0028559742100297963,0.18944925475492957,-9.638737298502223,1.0727567066763188
8718203533090,-0.0012485758363036635,0.004267684676414814,-0.00020699511679486693,0.19440329772683296,-9.638740936465238,1.0628997493850874
8718204528290,-0.0013065604045714987,-0.020294964775922582,0.00037882499579614416,0.2033205870056059,-9.648666972078225,1.049088086079146
8718205518690,0.0016888897721095662,0.024295559890651346,0.0018023225199576198,0.18944925475492957,-9.658575327043973,1.067813921306512
8718206518690,0.003116633762319068,-0.00965746937001613,6.118258173385457e-05,0.20827462997750923,-9.677435798697012,1.0864838618397812
8718207513990,-0.002009329456663039,0.0013897223445237944,-0.00047517935957986463,0.21322867294941256,-9.691326340459044,1.0825242433686089
8718208509190,-0.0031482471614414703,-0.001993563870293015,0.0002581255818580267,0.19440329772683296,-9.643700680150234,1.0914594337016332
8718209499590,-0.0005253982362362075,-0.008774079330073667,0.001207654293365691,0.1983665439346216,-9.634776430415313,1.1062363073143688
8718210499590,-0.002220713803835812,0.018303232440221855,0.0001424722953059076,0.22710000520008888,-9.648684434309457,1.0864823771775343
8718211494890,-0.002064357947380242,-0.021921965888464665,0.0004955569582009746,0.237008120769101,-9.643731966671437,1.0726828270861293
8718212490090,1.2753679764011469e-05,0.006279014327062779,-0.002204718842254689,0.22214596222818556,-9.672486241416411,1.0726785285244533
8718213480490,0.0003982796659696003,0.009884365596179591,0.0028374466426073297,0.2181827160203969,-9.658596427238294,1.0776217209573569
8718214480490,-0.0016909298592347839,-0.023424806327164836,0.00010776619889051389,0.22214596222818556,-9.638761309075642,1.0628592666020555
8718215475790,-0.0010959966751877452,0.015670816320956994,-0.00038079288117934436,0.2320540481719922,-9.66257497607149,1.0726730305758096
8718216470990,-0.0005088352250879873,-0.0017600430067762837,0.0017572244938429465,0.22710000520008888,-9.672489879379427,1.082521027592824
8718217461390,-0.0039033836349216737,-0.0024942232243344853,0.0006334563984805187,0.2181827160203969,-9.658596427238294,1.082546585022633
8718218461390,-0.0035045056691299396,0.006788109729094813,-0.001437590657641095,0.22710000520008888,-9.643724690723653,1.0864868576926463
8718219456590,0.0009712474552787398,-0.013555434379045536,0.003930845954621211,0.24196216374100432,-9.643735604634452,1.053961044012378
8718220451790,0.0015327865382089509,0.011413176813052116,-0.0025508702575418513,0.22710000520008888,-9.653644177994451,1.0588986342771152
8718221442290,-0.0004091984070031269,-0.01277663736355401,-0.00020012069479152534,0.2181827160203969,-9.66256478976636,1.0589035820208874
8718222442290,-0.003401651116139387,-0.0028853499992956277,0.0031386554934722515,0.22214596222818556,-9.648680796346442,1.0589103438544982
8718223437490,2.6924908670854925e-05,0.012266325581646642,0.002854803582856725,0.2181827160203969,-9.64371814238154,1.0677854334191383
8718224432690,-0.0013121725363370064,-0.02266753309881828,-0.0011429507946650727,0.1983665439346216,-9.648663334115138,1.0441704510761962
8718225423190,0.000642499829917929,0.006879038530926224,0.002314357174188494,0.1983665439346216,-9.653623077800132,1.0490908346262708
8718226423190,0.0015248127664612768,0.00804294767034272,-0.004957721495757821,0.20827462997750923,-9.65858915131219,1.0776361790818645
8718227418390,0.0010853894770732377,-0.018422241344957485,0.0001332580704022316,0.2181827160203969,-9.653637629652337,1.077626200617875
8718228413590,-0.0004768735383703041,0.011785087975933105,-0.000534618964659562,0.21322867294941256,-9.643714504418451,1.0589278366989447
8718229404090,0.0006138145817869926,-0.005266171750746888,0.0006006668159094664,0.2033205870056059,-9.638747484807425,1.062886737055753
8718230404090,-0.0017402723790966449,0.008898017764428688,0.001206209852300813,0.1983665439346216,-9.643703590529334,1.0776640778972038
8718231399290,0.0003737583080849257,-0.00048502835299796265,-0.0028792215047627944,0.20827462997750923,-9.662557513840257,1.0864973025306126
8718232394490,-0.0025459860523105943,-0.013021327885903076,5.57403672373025e-05,0.1983665439346216,-9.672468779185108,1.0825629561710293
8718233384990,-0.0008233933874872666,0.02467931849086085,0.0019381484869755924,0.18449521178302625,-9.65857168908096,1.0825957426630197
8718234384990,0.0003287757119331096,-0.019548045675547104,0.00025339768439612814,0.2033205870056059,-9.677432160733996,1.0864910909019627
8718235380190,-0.0009960566294839237,0.004786278983605723,-0.0035919436107966574,0.18944925475492957,-9.677421974428794,1.1012859245878048
8718236375390,-0.0019838883945825945,0.012166107018427491,-0.0005273807315226463,0.19440329772683296,-9.653620167421032,1.0865256085075463
8718237365890,-0.005074824613206448,-0.019644170752116802,-0.001738127276568332,0.22214596222818556,-9.643721052760638,1.0539899603043341
8718238365890,0.001157878956410681,0.012289522225274428,-0.0021673389565729606,0.22710000520008888,-9.634797530609632,1.07270534983914
8718239361090,-0.0027659401203563236,0.0002672970029185609,-0.0009823684703369768,0.21322867294941256,-9.638754760733455,1.0914364437631372
8718240356290,0.002630276672299389,-0.0027575589261538413,-0.0011450588794690718,0.18944925475492957,-9.682381718113792,1.0589275893930596
8718241346790,-0.005507655437309617,0.009918627427843565,0.00022100520883640024,0.19440329772683296,-9.68635371850568,1.0864960377912856
8718242346790,-0.0016799972051522267,-0.018800911952618238,0.00239767058678702,0.18449521178302625,-9.653612891495003,1.091464930795683
8718243341990,-0.001721019659158469,0.017066108142047426,-0.00312971773884866,0.17062387953234998,-9.653602705189801,1.0589810456382078
8718244337190,-0.00040566260889760876,-0.011286568378664378,0.002319417633717365,0.2033205870056059,-9.658585513349175,1.0914329806814673
8718245327590,-0.005053234793078694,-0.010502078787945492,-0.0007976774775481552,0.22214596222818556,-9.653640540031436,1.1012597180188404
8718246327590,-0.0023513933053394658,0.01618101066443791,-0.0012517434143764503,0.21322867294941256,-9.672479693074225,1.0628418126247376
8718247322890,-0.0018023787717622222,-0.01739989033797787,-0.0017329382964398933,0.2033205870056059,-9.662553875877242,1.0776398232191464
8718248318090,-0.001641822640999489,-0.0026238293481514186,-1.7480056370830152e-06,0.22214596222818556,-9.638761309075642,1.0825587229616578
8718249308490,0.003307071036947629,0.01777716638996296,0.0012510872321610444,0.24196216374100432,-9.667541995605076,1.053939537881535
8718250308490,-0.0011891716935751567,-0.02379091920363607,-0.0020292684584081026,0.237008120769101,-9.686385005026883,1.0588546053932617
8718251303790,-0.0007314502510471048,0.010402244736367507,0.00046051643159874135,0.2181827160203969,-9.696289722007936,1.0677379414968449
8718252298990,-0.0010212201067437594,-0.005882383778967191,-0.0002767803725617513,0.1983665439346216,-9.691315426569927,1.0825459305552982
8718253289390,0.0005162899582406844,0.006667397830507557,-0.00483850509566923,0.1983665439346216,-9.672468779185108,1.0776380921057531
8718254289390,0.0004920111370878832,-0.0036280694016041157,-0.0010189231491453976,0.22710000520008888,-9.638764947038657,1.062852037539874
8718255284590,-0.00178139110407537,-0.008518535534418371,0.0010877941428546704,0.237008120769101,-9.6010789282168,1.0589316688864994
8718256279790,-0.003363454111106078,0.013313365810952611,-0.0032756681377650223,0.2181827160203969,-9.638758398696543,1.0490753599227702
8718257270290,-0.004676583756173207,-0.010656373862213752,0.004344396409284912,0.2033205870056059,-9.658585513349175,1.0490791259034267
8718258270290,-0.008054843839103563,-0.004481537662604906,5.373980146016789e-06,0.21322867294941256,-9.648674248004255,1.0539984921185566
8718259265490,-0.007870966653833314,0.020146497016682717,0.010461003705173971,0.24196216374100432,-9.611002053450614,1.0205014684228326
8718260260690,-0.03187683319534723,-0.03515316760919127,0.009907666408369093,0.303392361906771,-9.478129251389284,0.9594636114761539
8718261251190,-0.039562350461299405,0.009479053777943905,0.01036060595839134,0.35590527089284574,-9.301604535374427,0.9595464864309633
8718262251190,-0.05243128830307457,-0.012407418950354666,0.010753185869011724,0.4123813966596656,-9.163768351742668,1.1063496510804853
8718263246390,-0.04714065084035348,-0.006945995839030418,0.017047569917189587,0.5025450856170242,-9.25409943724325,1.3366204838541447
8718264241590,-0.042955744655603145,0.0092190275117955,0.01425887685897299,0.6065801067259778,-9.635076198877563,1.3548390134943067
8718265232090,-0.044119783352854866,-0.004795064898027921,0.011281261752389435,0.7116059246981272,-9.89602940588758,1.303231524881049
8718266232090,-0.038518623384979356,0.025765176501828267,0.010342766718803902,0.7165599677691116,-9.810727912941239,1.3033013584574564
8718267227290,-0.03819078986431304,0.004930470751776363,0.016473466666885477,0.6065801067259778,-9.672768547647358,1.23759312720936
8718268222490,-0.04451218888586439,-0.011352591912123712,0.01926794138090096,0.46885758137965344,-9.506024566988101,1.2231700442415137
8718269212990,-0.059891263508318575,0.021285086036955427,0.018157311582656075,0.35590527089284574,-9.107186936783481,1.37538097726637
8718270212990,-0.06800858383129885,-0.010549351405197124,0.024615585281116042,0.28456695715806696,-8.632001894699066,1.502975981055491
8718271208190,-0.07299323863690647,0.007113248501333241,0.028766216432709327,0.303392361906771,-8.499097806138286,1.4745043032185081
8718272203390,-0.0704250574495551,0.03039476456558933,0.031802580661111315,0.3459971554229146,-8.736199729683388,1.4505886685714244
8718273193890,-0.07226118476989506,-0.002172926965370456,0.030833754203264275,0.30834640497775534,-9.030774041603122,1.5311453381810596
8718274193890,-0.06918092675864851,0.02510022493838343,0.03690699562465988,0.2181827160203969,-9.31142288715573,1.539888024296093
8718275189090,-0.08572856281935762,-0.011427083081074603,0.03595655868229401,0.18944925475492957,-9.524666033036366,1.393961176847055
8718276184290,-0.09609820212787698,0.014010919100073918,0.04230970963154908,0.20827462997750923,-9.548485302374553,1.261925655407245
8718277174690,-0.1152438424046283,-0.005211437319700682,0.04060677063094009,0.19440329772683296,-9.501854661185687,1.148716021015934
8718278174690,-0.13231770230268167,0.0015091026595767942,0.036690085199215794,0.2033205870056059,-9.473096020772909,1.0728861109015726
8718279169990,-0.13934331340539394,0.006316677017420676,0.0326039403062061,0.24592540994879297,-9.463207820122435,1.082682630049687
8718280165190,-0.131809079496074,0.057271259402950955,0.03606429080740714,0.2934842464368399,-9.515814324211368,1.1337843022471794
8718281155590,-0.15271721395986954,-0.016525863214298993,0.024710524466445352,0.3459971554229146,-9.515852886658601,1.0962786834957425
8718282155590,-0.13984048984100408,0.061891816782548445,0.020813108681857564,0.45994029210088044,-9.615129540525965,0.9354720958122473
8718283150890,-0.1473445608148151,0.0237075869479568,0.019321639621541563,0.559021211284763,-9.662815081870578,0.8830809193110647
8718284146090,-0.13625907811392127,0.03533836470559254,0.016480816227501673,0.5312785467834104,-9.534835593995453,0.9502151725369175
8718285136490,-0.14839643091969174,0.05722979215114067,0.007758829565244131,0.5362325898543947,-9.482267652332144,0.9591202611794047
8718286136490,-0.14111561483711954,0.05409418266379118,0.003699994999646383,0.5788374423237063,-9.430718740306297,1.1669341167420804
8718287131790,-0.1428209524837682,0.07695256758685089,-0.005047563860713968,0.5639752542566664,-9.37813530074757,1.3039147065668775
8718288126990,-0.14751141777284302,0.059561950800996286,-0.0070335284307642895,0.5312785467834104,-9.340417995305316,1.3936290431665035
8718289117390,-0.14064509155975033,0.09375159208173332,-0.007951219923619622,0.4886737533663477,-9.368161462304558,1.4832986956031984
8718290117390,-0.14822005502968458,0.07879203296375395,-0.017439968971871913,0.4173354396315689,-9.482180341132475,1.4123817254410815
8718291112690,-0.14498487665207013,0.06525135267659432,-0.01804398389917693,0.34104311245101127,-9.624961716575486,1.3463707443085107
8718292107890,-0.15042539986578388,0.10273925033842969,-0.018650353516951376,0.30834640497775534,-9.734049227782927,1.3364701592536847
8718293098290,-0.15615398711266873,0.07142831857553986,-0.01784204662639956,0.30834640497775534,-9.762815362438547,1.3177296184975729
8718294098290,-0.157769482487292,0.07909805850962258,-0.021674445493898138,0.2934842464368399,-9.776691352326766,1.280309770012461
8718295093590,-0.16464045534409788,0.096183156863217,-0.025426563067226734,0.28456695715806696,-9.79156403484118,1.275384476731094
8718296088790,-0.1686036069779415,0.06749481781274004,-0.02410396594940192,0.303392361906771,-9.757851980889656,1.1857548998726066
8718297079190,-0.18034809178948943,0.0960841807704297,-0.020360007560259578,0.32221773712935065,-9.69140637573261,1.1247190586053026
8718298079190,-0.18771764140638875,0.061641596786641176,-0.018689664569164058,0.3459971554229146,-9.638852258238327,1.0301742959161555
8718299074490,-0.19432074352342493,0.08571959820133777,-0.018129020277579722,0.32717178020033494,-9.563451844430826,0.9692015775505363
8718300069690,-0.1962240006250533,0.07791825647855224,-0.010898970683495973,0.27961291418616363,-9.539610528975983,1.0165712015996846
8718301060090,-0.20443382219308148,0.06014814718902117,-0.009990852241350929,0.22710000520008888,-9.529653425257797,1.0629506063093608
8718302060090,-0.20538085107786808,0.08480165946603617,-0.003546615556861429,0.16566980703432221,-9.49687476328461,1.1103485363353875
8718303055290,-0.2068195996182624,0.0608607395841797,-0.0011957230107035306,0.14684443181174256,-9.444288413390149,1.1251980918602988
8718304050490,-0.20959889109794866,0.05460112770919047,-0.00047693929401720035,0.15576172099143454,-9.382795275892803,1.0917514905876078
8718305040990,-0.20273582659081052,0.08740504753812929,-2.387819062144112e-05,0.22214596222818556,-9.491956492425947,1.0019234779119808
8718306040990,-0.2039416139027803,0.055683243033602906,0.004406333588423534,0.3459971554229146,-9.382934973807924,1.0589697677818946
8718307036190,-0.20051838046882334,0.06856871735975881,0.006114599784436056,0.25583349599168065,-9.325337439512863,1.0020248622900847
8718308031390,-0.20191662882856967,0.061782256999664206,0.010715122222890899,0.1745870962140142,-9.473074920556908,1.0542134855112932
8718309021890,-0.19312700359097085,0.05902621884321846,0.005023105990534585,0.2033205870056059,-9.463176533601303,1.1674525095199335
8718310021890,-0.18690080621733204,0.08820197844395422,0.00482608404356316,0.24196216374100432,-9.47312439691494,1.14374774366721
8718311017090,-0.18409437984744664,0.052729854234464024,0.005077881325942767,0.378693892422295,-9.568449422979137,1.1858161697621994
8718312012290,-0.1816281615938343,0.08607762906920671,0.00040391059484618137,0.402473310616778,-9.73907809283069,1.0822050806452845
8718313002790,-0.19179525184368676,0.09087694217687341,-0.00015943864934136673,0.34104311245101127,-9.909644189661662,0.9875830399827532
8718314002790,-0.19184760113817106,0.06870917023181616,-0.002192213649522626,0.260787538963584,-9.981004427714282,0.959071467678499
8718314997990,-0.18184100711595783,0.10237882944212633,-0.0016174785351106406,0.1745870962140142,-10.123778527209508,0.9265640911179138
8718315993190,-0.16882784947613227,0.07889879573631264,-0.0009391073317639221,0.13693634576885494,-10.304280627564347,0.8269735265569251
8718316983690,-0.136734382216983,0.10016805851196751,0.008015136077071047,0.10423962353253675,-10.34194991174973,0.850626605269065
8718317983690,-0.11525271186964785,0.09757959626672578,0.009687892582496688,0.09928558056063343,-10.309212722702066,0.751181044689658
8718318978890,-0.14985771727836691,0.13026478337101455,-0.011312945656300361,0.08937747975468356,-10.237787219654713,0.48728704646164434
8718319974090,-0.07354817900833471,0.14455657819736517,0.05529936597008399,0.04677267157455871,-9.862807639563167,0.5064024311849065
8718320964590,-0.08990734220257371,0.028313039338401957,0.011898671830181045,-0.0007861944396126558,-9.600904305806623,0.5776264742062444
8718321964590,-0.08679776521169291,0.17456040423513475,-0.016475574096435193,-0.043391002619737495,-9.691137893791563,0.7046687238850825
8718322959790,-0.07618477773703831,0.0924030932073119,0.015429351922460966,-0.09986715038252925,-9.78632198505157,1.1341136591753438
8718323954990,-0.060604694615817176,0.09163713293164998,0.03143632699822771,-0.104821199002047,-10.1047266985112,1.2707446554430004
8718324945390,-0.041306580379941796,0.12232254538076474,-0.0014130073014213297,-0.03843695964783414,-10.518408416770079,1.1904912742779803
8718325945390,-0.021783620737717557,0.08852459079953207,-0.020147363748940505,0.056680757617446356,-10.898385356894886,1.100376586132287
8718326940690,-0.008098481857207523,0.08349337408138509,-0.00203058479729997,0.18449521178302625,-11.24962111905814,0.7029284409500459
8718327935890,-0.003917641682261873,0.09797587359189665,-0.01813057646105401,0.2033205870056059,-11.358747411107062,0.43390456289481316
8718328926290,-0.007131470989738845,0.06739307402378883,-0.03777673226002799,0.10423962353253675,-11.193023187735852,0.23129419533374157
8718329926290,-0.011527200638497746,0.06836376819466669,-0.029099123131196537,-0.052308291799429474,-10.850693485591567,0.11461988802453442
8718330921590,-0.016102096033625966,0.0466902482592392,-0.026974071795897513,-0.18904001304964854,-10.384387582578983,0.16251931755726617
8718331916790,-0.014219539501862818,0.04572538903865292,-0.03514201640275169,-0.27524044846722767,-10.009375988376862,0.27625581439192476
8718332907190,-0.005122394338068637,0.06677867622489471,-0.041300279960102146,-0.3267625458270445,-9.800042269878373,0.41737132374939073
8718333907190,0.011916576330893148,0.045293140053778796,-0.041248093205875025,-0.2792036799119541,-9.781230546977698,0.39860445498314473
8718334902490,0.028439084483181422,0.07118423405438674,-0.0430048494924825,-0.23164482866084496,-9.895336737016125,0.32751386972475827
8718335897690,0.03938617835191695,0.07742352295727083,-0.04512912261786095,-0.3029831128694993,-9.93793738865612,0.2428716977592486
8718336888090,0.043080520972233,0.04547976357418172,-0.04912203935239691,-0.41692623478440294,-9.895200677053252,0.16723352649767298
8718337888090,0.0481328680482402,0.05646600981141302,-0.0447968422973293,-0.6121157121877864,-9.785945819295065,0.19125627995856304
8718338883390,0.05133937169478111,0.030790258917299876,-0.04899653474623719,-0.848919215869323,-9.634007364244146,0.45669686497589723
8718339878590,0.04778215213613895,0.014363038785612438,-0.04445497594829255,-1.0629340980214106,-9.562431030965858,0.7634005664804498
8718340868990,0.0524134706542286,0.006699271889619607,-0.04364312005941896,-1.1808403923287918,-9.528619515151963,0.8670253480405333
8718341868990,0.057275091144867576,-0.009866303224351867,-0.04201427002294296,-1.185794435300695,-9.581187456815346,0.9615425814729943
8718342864290,0.06675953387760644,0.015542771022400238,-0.04287432202056218,-0.9727704090640521,-9.690455411236078,0.9847724635356909
8718343859490,0.07092132127118,-0.03130516121086576,-0.048475765665218676,-0.5833822214952755,-9.83853849913739,0.8707988092103587
8718344849890,0.07814036107471091,-0.007391312651871023,-0.04946448470902681,-0.2792036799119541,-9.995486174209585,0.7007978270932117
8718345849890,0.08670852928739459,0.0024958468643750675,-0.05268582686108818,-0.1375179156898317,-10.038243258505751,0.7330567292242579
8718346845090,0.0882356037693681,-0.042610565715044776,-0.054252248012009785,-0.12265577141657372,-10.089834370875542,0.8462603785785822
8718347840290,0.09785750947960249,-0.012215646948828277,-0.050310916216357915,-0.10977524663075522,-10.16126205669938,0.9220201251496154
8718348830790,0.09446798896576715,-0.0108197483002321,-0.05142020183348553,-0.009703476188233043,-10.24267420390935,0.9877937739671914
8718349830790,0.08987422404063955,-0.040457642724319426,-0.05951239972023625,0.14189038874075827,-10.285437618142538,0.8791869647235041
8718350825990,0.10350982444498893,-0.013191960592979633,-0.05874149730212354,0.34104311245101127,-10.280625066714698,0.7469143488912148
8718351821190,0.1013265664891611,-0.033132247461986536,-0.054228084427534684,0.5025450856170242,-10.290662205706449,0.5713443595951923
8718352811690,0.1061362089712294,-0.018485790691821637,-0.05464509896807128,0.6026168605181892,-10.271889045253007,0.4727179585950322
8718353811690,0.09756892050006252,-0.02800448933614659,-0.050041076774743745,0.6541389432140248,-10.181662005698602,0.5387175923047639
8718354806890,0.10057670726769243,-0.03142552295867571,-0.044929349679482686,0.6541389432140248,-10.01501821450731,0.6422903978355837
8718355802090,0.09182935372146306,-0.010788231960828797,-0.032340356301885864,0.6402676109633485,-9.776946009999596,0.6848795535063336
8718356792590,0.09110931331429313,-0.049672034195321,-0.024572689563005897,0.6452216540343327,-9.444654392836068,0.7423010178006586
8718357792590,0.09315052896190965,-0.036726864185388654,-0.00981083888969532,0.6065801067259778,-9.136137152559654,0.954405477054459
8718358787790,0.08953036137272019,-0.02659839112047798,-0.0035826951635331275,0.49759104254603964,-8.94560693512417,1.1103624111660626
8718359782990,0.09182673203626905,-0.06522561800578952,0.00116613296328968,0.4886737533663477,-8.912866835598216,1.1301044505712048
8718360773490,0.08435400509347755,-0.03695138888409978,0.014179585645244838,0.4886737533663477,-8.969406777752681,1.1339932180323833
8718361773490,0.0807923030041805,-0.05530541107631501,0.02749097014835437,0.303392361906771,-8.869086356034543,1.2525509451745631
8718362768690,0.07545364132905362,-0.08116328205475706,0.039251112599083454,0.041818613839593136,-8.812354329227905,1.5790101192724824
8718363763890,0.05659055096854804,-0.0872210716035408,0.05921781356397189,-0.18904001304964854,-8.912369161752654,1.7437470444648275
8718364754390,0.05033676979385393,-0.12812331774034288,0.07301137467802349,-0.3366706466329944,-8.798189484876586,1.7677049382011611
8718365754390,0.04635764678041904,-0.11037533704519162,0.08393488420151873,-0.3079371706044649,-8.583954957849858,1.7442171448949173
8718366749590,0.03144528331133705,-0.14621115618706843,0.09314722044745836,-0.11472929465578724,-8.679321456635376,1.5320799140127541
8718367744790,0.031327272807909215,-0.14299622388595806,0.10119957052493089,0.07550614760308823,-8.926450332872777,1.2902605005583931
8718368735190,0.02282360950484673,-0.12555401107550085,0.10197184869838795,0.16071576396333792,-8.988012591732813,1.2526516125994924
8718369735190,0.013782932330479867,-0.17589726279022866,0.1022844132251477,0.22710000520008888,-9.040633866111493,1.2525072502939194
8718370730490,0.0013859317401010707,-0.15755999399482729,0.10219648726196402,0.30834640497775534,-9.187498345424423,1.1251945093972926
8718371725690,-0.005555179737463112,-0.17020724702408735,0.10501761848905897,0.3172636941574473,-9.211311284836356,1.134024699310818
8718372716090,-0.0160729487609328,-0.20747170203607818,0.09751912578093651,0.2647507851713726,-9.154732780234657,1.1765063763835966
8718373716090,-0.025353000666631847,-0.1995070575752177,0.09032465380088565,0.29843831893486766,-9.192450813183317,1.049361485922662
8718374711390,-0.03584741297790287,-0.2268850639165314,0.08515184666192169,0.33212582317223827,-9.27381326562267,0.9359668581142304
8718375706590,-0.03720178384308599,-0.2150380361223227,0.07331696753772197,0.3509512279209424,-9.340285573337981,0.8649612723788078
8718376696990,-0.042874112584093814,-0.22248742185251552,0.06412440969596842,0.3886019783661017,-9.497038471794758,0.8884041089578767
8718377696990,-0.04516935329597635,-0.2365993153920506,0.056758153303235664,0.4123813966596656,-9.677585682917332,0.9167706053748713
8718378692290,-0.050491008480693884,-0.20198289755473126,0.0541243471272978,0.3747306461154254,-9.686486140494697,0.930607053379821
8718379687490,-0.05687179192483568,-0.2433787154716311,0.04332275168400303,0.2181827160203969,-9.601065103926903,1.0205451290121104
8718380677890,-0.05621506121510973,-0.23131700608694122,0.0368783623668997,0.06163481535241193,-9.587063240490973,1.0168462683775183
8718381677890,-0.058076829035043034,-0.22150077278128488,0.030175514712730157,-0.12265577141657372,-9.61073429909923,1.0259583920081239
8718382673190,-0.0635632821949102,-0.25670223584553775,0.03196035904866981,-0.3455879358126864,-9.662150789162837,1.0311619678760744
8718383668390,-0.07218190758657574,-0.23470693656041347,0.024984817973739096,-0.5070898943147178,-9.876287818684693,0.931721780410933
8718384658790,-0.0718049384130331,-0.234709569329543,0.025234579392757174,-0.6210330014665593,-10.089468391423877,0.8844166722926889
8718385658790,-0.07193413098946778,-0.23619920575801118,0.02271543010138127,-0.7062426474520144,-10.104285049337337,0.9554457076928056
8718386654090,-0.07166031847811942,-0.22666855520771068,0.02114834039887966,-0.7538014838409803,-10.109209868460676,1.120986200717752
8718387649290,-0.07310827199745515,-0.2545126720293442,0.02698586410639167,-0.739930151689385,-10.070534432839386,1.2480624711398667
8718388639690,-0.07341363284635387,-0.22416809314525304,0.023303760127055647,-0.7022794012442257,-9.956490815909964,1.4323007081355272
8718389639690,-0.07800923842121191,-0.25461389029470094,0.025620107885566748,-0.6685918379546061,-9.847403086329955,1.5643366656443272
8718390634890,-0.07841819151835407,-0.26817057279734957,0.030296971471287227,-0.6259870444384626,-9.738322850949423,1.6116517832874997
8718391630090,-0.07889361896481412,-0.25664879691677134,0.03175703248909903,-0.6121157121877864,-9.634181259059568,1.5979359402040652
8718392620590,-0.09143320820696133,-0.29871237876569534,0.03251314528941099,-0.6121157121877864,-9.477456955139074,1.6542210658612544
8718393620590,-0.09555034050610915,-0.28615353556134915,0.02985096835018494,-0.5645568462726959,-9.334654479501744,1.7064842856257372
8718394615790,-0.10813160137541847,-0.29265072738553805,0.03436245519079774,-0.43178836379919394,-9.282179451281177,1.6403447664904562
8718395610990,-0.10982546391996774,-0.3181615470321718,0.025912999428452013,-0.2514610154106015,-9.287271616955188,1.7582740036065205
8718396601490,-0.1221243412505706,-0.3115018491330675,0.03026222464151709,-0.11869253303618048,-9.29232885804579,1.762015745751426
8718397601490,-0.13188372508079169,-0.3468900443382035,0.022899631602763846,-0.01465752659120799,-9.26363912068988,1.6722573484169865
8718398596690,-0.15057048104731946,-0.3314328928949906,0.026450133000087406,0.0844234367827802,-9.207171937872038,1.558891852269176
8718399591890,-0.1635827984370046,-0.3608186392678369,0.023404414168735666,0.18944925475492957,-9.097145213828869,1.333278980259341
8718400582390,-0.18211910271859996,-0.3880778004554269,0.024530716556412122,0.260787538963584,-8.998005565935065,1.2101427695789806
8718401582390,-0.19426006846954152,-0.36775080890169687,0.02709042514602057,0.2885302034649365,-8.983146707688867,1.1490473196502606
